,mean_rankleAccelerationX,var_rankleAccelerationX,mean_rankleAccelerationY,var_rankleAccelerationY,mean_rankleAccelerationZ,var_rankleAccelerationZ,mean_rankleAngularVelocityX,var_rankleAngularVelocityX,mean_rankleAngularVelocityY,var_rankleAngularVelocityY,mean_rankleAngularVelocityZ,var_rankleAngularVelocityZ,mean_rankleMagneticFieldX,var_rankleMagneticFieldX,mean_rankleMagneticFieldY,var_rankleMagneticFieldY,mean_rankleMagneticFieldZ,var_rankleMagneticFieldZ,mean_lankleAccelerationX,var_lankleAccelerationX,mean_lankleAccelerationY,var_lankleAccelerationY,mean_lankleAccelerationZ,var_lankleAccelerationZ,mean_lankleAngularVelocityX,var_lankleAngularVelocityX,mean_lankleAngularVelocityY,var_lankleAngularVelocityY,mean_lankleAngularVelocityZ,var_lankleAngularVelocityZ,mean_lankleMagneticFieldX,var_lankleMagneticFieldX,mean_lankleMagneticFieldY,var_lankleMagneticFieldY,mean_lankleMagneticFieldZ,var_lankleMagneticFieldZ,mean_rthighAccelerationX,var_rthighAccelerationX,mean_rthighAccelerationY,var_rthighAccelerationY,mean_rthighAccelerationZ,var_rthighAccelerationZ,mean_rthighAngularVelocityX,var_rthighAngularVelocityX,mean_rthighAngularVelocityY,var_rthighAngularVelocityY,mean_rthighAngularVelocityZ,var_rthighAngularVelocityZ,mean_rthighMagneticFieldX,var_rthighMagneticFieldX,mean_rthighMagneticFieldY,var_rthighMagneticFieldY,mean_rthighMagneticFieldZ,var_rthighMagneticFieldZ,mean_lthighAccelerationX,var_lthighAccelerationX,mean_lthighAccelerationY,var_lthighAccelerationY,mean_lthighAccelerationZ,var_lthighAccelerationZ,mean_lthighAngularVelocityX,var_lthighAngularVelocityX,mean_lthighAngularVelocityY,var_lthighAngularVelocityY,mean_lthighAngularVelocityZ,var_lthighAngularVelocityZ,mean_lthighMagneticFieldX,var_lthighMagneticFieldX,mean_lthighMagneticFieldY,var_lthighMagneticFieldY,mean_lthighMagneticFieldZ,var_lthighMagneticFieldZ,mean_headAccelerationX,var_headAccelerationX,mean_headAccelerationY,var_headAccelerationY,mean_headAccelerationZ,var_headAccelerationZ,mean_headAngularVelocityX,var_headAngularVelocityX,mean_headAngularVelocityY,var_headAngularVelocityY,mean_headAngularVelocityZ,var_headAngularVelocityZ,mean_headMagneticFieldX,var_headMagneticFieldX,mean_headMagneticFieldY,var_headMagneticFieldY,mean_headMagneticFieldZ,var_headMagneticFieldZ,mean_sternumAccelerationX,var_sternumAccelerationX,mean_sternumAccelerationY,var_sternumAccelerationY,mean_sternumAccelerationZ,var_sternumAccelerationZ,mean_sternumAngularVelocityX,var_sternumAngularVelocityX,mean_sternumAngularVelocityY,var_sternumAngularVelocityY,mean_sternumAngularVelocityZ,var_sternumAngularVelocityZ,mean_sternumMagneticFieldX,var_sternumMagneticFieldX,mean_sternumMagneticFieldY,var_sternumMagneticFieldY,mean_sternumMagneticFieldZ,var_sternumMagneticFieldZ,mean_waistAccelerationX,var_waistAccelerationX,mean_waistAccelerationY,var_waistAccelerationY,mean_waistAccelerationZ,var_waistAccelerationZ,mean_waistAngularVelocityX,var_waistAngularVelocityX,mean_waistAngularVelocityY,var_waistAngularVelocityY,mean_waistAngularVelocityZ,var_waistAngularVelocityZ,mean_waistMagneticFieldX,var_waistMagneticFieldX,mean_waistMagneticFieldY,var_waistMagneticFieldY,mean_waistMagneticFieldZ,var_waistMagneticFieldZ,mean_id,var_id,mean_subject,var_subject,mean_category,var_category,mean_trial,var_trial,class_label
0,9.78471806041426,1.446066602665162E-4,0.8370103269716433,0.010219357768137429,0.38420645531229797,8.388354769715184E-4,0.25039501370014344,0.0030896202034849454,0.03344966441801319,1.057807619784947E-4,0.022596418611593914,1.9051929697122793E-4,49.68113519662242,0.07150820094040561,15.019819174098018,0.2681669211929781,8.81520818475869,0.11901824379575707,9.804022332758603,1.1107615977110313E-4,0.13041384052794638,0.005670697822917719,0.2997032396520095,4.863273134662943E-4,0.06295264468673753,3.452090008504454E-4,0.011055375400337351,7.681671076857841E-5,0.01728731560460106,1.1723952130500354E-4,38.66365559473386,0.06165796109187987,33.50024408993135,0.12318585878248024,12.813581301920438,0.07673122402519784,9.620753380151285,5.03742147018212E-4,0.8981475002345849,0.014838223934854199,1.54220904226715,0.0017845440285995232,0.06628341849489552,0.0011110984097217466,0.011525219296390636,3.654868182342734E-5,0.02634436535367439,4.0519192959733634E-4,37.858388476197504,0.6519310242625135,5.136347891682406,1.3291445942860498,44.410911572732005,0.7700137718333816,9.613651193257581,3.309072895285583E-4,0.11771724944177839,0.011037566017272042,1.212964373965596,0.0022902583204626355,0.2176391063041465,5.495646831888261E-4,0.21912490682942526,8.862710626686096E-5,0.01889873088215264,1.9998451471636475E-4,34.63537309969779,0.5599131591721819,61.64805406589445,1.231565280853402,40.079699772933,0.5712547386902798,9.386157175235178,6.311508811738483E-4,0.8404308076316732,0.001125410549205485,2.3069647784248937,0.006368026520162103,0.22137006968754866,2.7619260676267345E-4,0.1209103356539411,3.258874456539534E-4,0.017729524970116508,1.836426184429633E-4,31.04109677286243,0.35795421076740536,47.16439129902279,0.8561225421992902,69.79423152885563,0.4262658821677168,9.605747238742156,0.0021309526416884703,0.20668023931438048,0.0032398281546982426,1.3096250228311532,0.03764975101220015,0.07414304984273602,0.002225213254302795,0.19152731903862716,0.0010341971566880626,0.0382197143102337,5.694895007428298E-4,34.192698304439304,8.486987106884445,14.877183704290259,13.675833638781778,35.65744752345291,10.904694738014687,9.446558290145722,0.011544056681971997,0.8253359144392649,0.1577170649426547,2.546265708251649,0.008253809929884,0.2524217905034234,0.03479765422794306,1.1700711396841512,0.0020364604676658075,0.07775125903927527,0.008666278368689528,39.64249941043283,10.090969045168587,29.210088539757205,30.6274635756661,22.282052835356755,12.102327872685597,293.0,7575.166666666667,4.0,0.0,8.0,0.0,3.0,0.0,0
1,9.446550627483482,0.5584071067081531,1.3530991370774237,0.9559589678675295,2.1516984052394528,1.6892485134218156,0.2741683885498449,0.03970374986162868,0.20559391075993672,0.05304606918112169,0.34668458446256023,0.036152617203274735,31.46531864178933,15.617472501571726,7.548567876467277,1.8790414302834264,29.075863968098282,7.721214084906242,9.514113548190094,0.541758237890268,1.816398496433251,1.9242971717535913,1.344619246001705,0.5344226162797886,0.23436492649286034,0.026094581351584732,0.11198257482950993,0.006112084046672709,0.391555936769211,0.060015472863306024,15.419881080868237,199.92524131217135,8.796097868304711,140.21271155277202,20.27339551313641,52.354657039891805,3.9147437560399903,11.155604383112486,7.747109495914012,11.211614799436706,0.7225302019747488,0.5980509596769253,0.3186575444935406,0.15713776461462323,0.12164611288760573,0.015671495921328427,0.7316647213837286,0.33766065748234314,22.485831814449888,95.16075039988363,90.96966858163624,778.6847980272337,55.2998791944941,22.12362007191213,3.8975655518602146,10.63428450243044,7.732996724293013,10.468754317166962,1.7579697367268772,0.9264422781569657,0.4424848009445828,0.11045971649423718,0.16276144855783362,0.014256852534613345,0.7467693794971995,0.2920383619874467,15.99848293569991,228.65659860741496,26.110221618829772,134.87918638327113,11.712545365850097,82.8339742676752,7.7929544417169,3.0802467279648096,0.49358749904293114,0.17946685272539797,4.769708108045532,11.007438183857115,0.25668409259724345,0.042417071478554606,0.9197535749419052,0.2861940121337226,0.12109163121445618,0.013873078875541518,32.95516194061584,86.18684896494139,64.32712729824738,2.1703086824327418,66.63754089963793,241.63845252907223,8.893867858620577,2.0964862765172487,0.3233691268814016,0.05501282956403796,3.4129529155433436,4.847225664059843,0.12411402296769955,0.008927765445127194,0.7087713321516185,0.19201139912690893,0.0820960829910971,0.0054741029593141565,33.263135111609174,15.045518013616386,32.879000780986395,12.812668037566471,36.88543580774453,136.59199801932607,9.058324585721342,3.3462286032760074,1.2373880109768298,1.833159716975332,3.4930360481836074,4.25550012630832,0.18215078724922606,0.02511841018302038,0.9229990487943011,0.23697294914870654,0.16341785000299916,0.022585620508726777,35.931631176970726,14.8165697290834,47.82160507404923,58.63152110510434,26.3140923176889,113.96517689338705,888.0,7575.166666666667,4.0,0.0,4.0,0.0,3.0,0.0,0
2,9.667798034475492,18.05676385163335,3.8360997361697233,11.847161464191723,2.5288393728131817,4.047565932721395,0.6858202957531183,0.2589407784520931,0.30524135315311185,0.05494271345738887,1.4251049261855773,1.0216134969176887,52.52574484688895,79.03548426392673,16.538506949759796,116.35238741009253,25.144529291957717,18.20666431600865,9.43888575140622,16.639584359594856,3.4802203824189784,11.602980317702565,2.6977298912248786,2.468686309941363,0.5588079866793848,0.3190680910892661,0.46318576028539593,0.10458737244831298,1.8235206947819735,1.4462996597579463,43.87731381666621,116.20794560556728,19.514587948785667,202.51024927341538,37.1207232998059,52.82612537700029,8.614248112586646,9.482806617575328,5.29520966860147,23.633551265073965,1.729948282065458,5.178060757739081,0.6731922379586586,0.3426041306633391,0.38013257217969426,0.08275086817201856,0.7004712847652428,0.2054894906706031,31.694189496214605,33.389625911791036,70.77633092886586,96.53540591249526,33.25936617803732,26.309007948331647,9.330190527082678,17.640762258329865,3.147344851686907,18.354641103836414,1.732310938680594,4.203585487744165,0.6095909407544894,0.40274626956546733,0.6288089943261496,0.17125980330990073,0.6500372182689236,0.1711674958837189,29.01722142545884,4.922410184035906,11.3694199355709,50.98212319773699,61.31335109571286,162.47213682877762,9.368047684134043,14.208378602716035,1.3092642861644295,1.7601395139965212,1.0127167499816028,1.9279572298422882,0.2775788835467975,0.047817929697443716,0.3546001894734169,0.12097722302997639,0.28636285981265486,0.031276229966901256,44.64047073921888,13.414101430251385,17.12642059972714,78.73024398199138,34.20859968622658,23.672282683929815,9.404812234580715,10.346458332437892,0.9052145973391725,0.6915081152136108,0.794657478869376,0.7429167572490382,0.3568293096093876,0.05091789906406626,0.28772267719662664,0.03408731287673777,0.150955857355574,0.017613361191107256,37.166260272561516,15.23619786800702,11.570479168250316,34.97774755968278,15.987547369098346,18.30380188298904,8.606956775006266,8.9051934562487,0.8815015870830248,0.22818710220896976,4.2350777423262995,2.1900582215826643,0.17606343580140119,0.015391284366818596,1.1547152271302434,0.10493207065452337,0.10567226211491669,0.007456865967759401,45.722589879336944,13.97815395215035,4.529468182721902,13.010683218939763,28.514609444577037,15.835662247927461,596.0,7575.166666666667,1.0,0.0,2.0,0.0,2.0,0.0,0
3,9.704727004928843,4.236661730122304E-5,0.22264180107172146,2.0297641771781927E-4,1.5198691893257572,1.6810580610061848E-4,0.24675337589064308,1.939627884390934E-5,0.027041129535837625,3.3627508438052675E-5,0.013047873763641362,1.938581583248671E-5,45.588036610042536,0.04995585220784419,6.573171126090015,0.07356231250323614,7.377166556361506,0.07033776252247695,9.525838902622363,4.214337721092972E-5,0.489658969185281,5.427957705789612E-4,2.0032620140880444,1.3789425990245349E-4,0.02503032224605547,5.516785842067989E-5,0.00659945183464775,1.6505642196706737E-5,0.024096242436811178,4.174722887722993E-5,35.708027329555776,0.05456683301710861,26.593913303261182,0.06505205219806828,5.126337342880097,0.0709220927489795,9.686899508352692,1.2823266223203049E-4,0.17232492303729455,5.867272807152793E-4,1.2358813325432052,2.2495896977544312E-4,0.05711969103280492,7.926399577743537E-5,0.0054086478330918,1.754611717091561E-5,0.020951495002450474,2.3205554564338608E-4,39.623359223932916,0.7019015675599639,14.776406034678716,2.3415976403468353,43.83598885266884,0.6167742681723941,9.438265661068533,1.4488610215135548E-4,1.9900956561795105,7.359340829642153E-4,1.0127837960902242,3.180732573406838E-4,0.19906108333818937,6.622786353931478E-5,0.2138462593884167,6.74844935656669E-5,0.02074223252027249,2.039309402838017E-4,36.73536252500211,0.5248986499078078,49.531883011624664,1.1987294760433165,37.6388923290164,0.6614870653278118,7.877285526440389,3.8553722486556007E-4,0.149218830802908,2.1007324214902923E-4,5.779538967284649,6.550745999968252E-4,0.22301152462381066,4.343555844892262E-5,0.11675837217672323,7.671970504344273E-5,0.018555242606157134,2.0694937253437862E-4,17.5497392610062,0.39311033724224775,38.653715203370766,0.8447599323370915,83.85007874751804,0.4935565550926368,9.41395781760992,7.753153102315884E-4,0.0535681426993678,4.688602777669733E-4,2.2851444463001136,0.0033711074867871994,0.04121319599215837,2.1221133133541857E-4,0.20273846501725853,1.3920373336573046E-4,0.037346485008615565,3.9653274136018576E-4,37.96731874713074,9.791478309769571,11.702829395813799,11.534176022727143,34.18193833614109,11.352105406229882,8.698032341130151,0.0021623811163879554,0.8982796478905155,0.0013154346567232655,4.422397160450881,7.183246149302561E-4,0.16051126244258246,8.862150283335936E-5,1.199183929798215,1.2458428247903117E-4,0.017700156123467113,1.9115347538024144E-4,39.408947345822355,10.316150712866401,8.939413982223831,14.077462994110162,16.46310130464674,11.384364450713138,864.0,7575.166666666667,9.0,0.0,8.0,0.0,3.0,0.0,0
4,11.281476344059275,31.241400489925837,3.6826516394240416,34.861092032867724,3.2490113439762416,4.0478275432646065,0.897321484228395,0.490636034139066,0.7080920964334024,0.4278800870380352,2.2320068422395525,2.665095607722404,43.49734429901225,92.7665779598512,22.965997402485076,180.61751911374043,7.420439029984993,10.217636522660362,11.194149409417694,26.816191849919015,3.5995760297393455,39.37471245522752,3.061776724022092,2.140497775397169,0.8278003529466819,0.550045574970199,0.6054328602975667,0.2790465999289699,2.327960884650284,3.3592452441128073,39.26220645777807,88.80834316214263,31.95404409396886,226.02384583274747,5.2063739605718276,16.096368772107986,10.211554022425434,14.280382896563793,3.6453191449500597,21.75828960704385,2.2418796514467245,5.970272222178261,1.0345966561505588,0.632695817011196,0.5330455914925648,0.1823085137235244,1.3642868699375974,0.5762214637741104,39.5920798976556,12.090285596361836,14.603352114904759,94.04928911537398,49.4349471817777,27.00107327263373,9.488965444786604,5.34455785188186,4.289319868966863,20.979066148255864,2.5380234470052576,5.962354776309437,0.8008399813252647,0.7075718965322968,0.44880342270956186,0.14630000146645625,1.2851156450593781,0.44284431893839693,38.16510075033701,6.386615433774448,46.17167674346619,161.7254377466212,41.039562028903894,23.963846522681564,9.682567060983855,5.056573541620943,1.942995265906327,2.3309318260743006,1.6964702227205484,1.851449240805604,0.5469040640899014,0.09889215501133014,0.2677831793361749,0.044155582725572504,0.2893267248289105,0.04507330240738632,37.993158549565415,1.0226661098608694,41.048398559671696,4.8362821377109375,53.8355420768459,1.1768857103658765,9.803071771349225,6.029295840065127,0.7663395514021755,0.41261090835561204,0.8341194080077483,0.4872670882321567,0.37518826616847534,0.06364116879687165,0.2573395019785448,0.02384387283290953,0.10076436884395226,0.005351049321559269,31.34076273084875,10.752368130116627,15.744995511647474,21.289687868592765,42.00665432749396,11.37558948528489,9.475909188736317,2.432702829731436,0.9901606445247153,0.6318040658488115,2.558062966034262,0.9375679339346152,0.21400426933696598,0.019312033773420893,1.179819219136159,0.08187559168353489,0.24585870453086914,0.022069864442265313,38.745973346241286,11.915332498647585,15.400084775547649,18.890905155015417,25.950508070150484,12.786041505784478,1119.0,7575.166666666667,3.0,0.0,5.0,0.0,1.0,0.0,0
5,10.193187765009775,31.498808105410582,5.203588153628564,19.23352352154896,4.015821554478369,8.763125947544669,0.776328309352488,0.2034525729369061,0.5634800074714857,0.16004359596922002,2.2162523134255725,1.9605637132510443,28.38509337212952,97.98404117520101,18.19633128635115,134.8187611237224,9.217341725958939,38.379744173643296,10.482706816396691,29.75806645388681,4.6141675175416115,21.948376508787376,4.106815142365191,8.526925620521478,0.5950224644299891,0.29906471634666804,0.7833348796223336,0.3747533585469956,1.8997835307057167,2.0239230472628114,30.82710485521741,103.93754740594707,32.509410522308855,136.6337977774316,21.432906235818848,253.55397411201378,9.140978096727517,11.567166273287208,4.5860742629688245,10.144143154749646,2.6547749441200588,3.4322599087148182,0.5793349837692473,0.19391848301279457,0.3246875418623928,0.06717507253177313,1.1757947294620883,0.9989090248349898,23.981572892578733,57.93466876437725,40.54820121562362,105.51334165566504,43.4887987371299,111.00793474548804,8.06431056811564,10.015872981381495,6.884050134024846,28.513174051354987,2.9592356247830507,4.859448567976091,0.7085857208496411,0.36598554080438833,0.3702283825422096,0.09069030000375132,0.9265294075781864,0.7207904985392656,26.214229875228728,68.16946762771182,32.866254334433926,51.262521179024496,42.69462860462277,292.87859224520685,9.573024844806456,8.131554574854533,1.4219456779154829,0.9931680046808079,1.427889120379042,1.3360170994112814,0.3442849333702039,0.06442216107926911,0.31952422015458665,0.05553083057004653,0.22623314560728267,0.024255807934102213,22.097904034231192,19.648827231321125,36.80666369061137,85.85719352902758,50.6568928208462,2.3504145508932246,9.554684879771894,6.1625490823185505,0.8150816575648802,0.341468241678254,0.806012236897252,0.5203481128908443,0.2824739536840103,0.03779530410199753,0.2889501552559293,0.038841135070444156,0.1221783519270735,0.012194866965430661,21.003108385789435,17.348539157730162,8.430868071073858,25.55467748629857,33.204484122140066,15.935119237784038,9.475106107040101,8.043437556637137,1.4615909939040461,0.5448721241676913,1.433219376945268,0.7396526335342631,0.1982013884853677,0.017060483679365357,1.1697580528219673,0.1202760706780389,0.11401319254709538,0.00634354214296578,25.794699890669,10.250717374122035,4.648567521239189,11.951108741390303,24.107413906591674,25.06816186322104,1403.0,7575.166666666667,8.0,0.0,2.0,0.0,3.0,0.0,0
6,10.766003434580327,26.739282817056203,5.049128306081265,42.19319873287629,2.5709858382440967,2.57971531446108,0.7667570162241183,0.3163893016455741,0.47130157096323827,0.20233942185905357,1.4110228362658752,2.0884636212696774,18.653329664686588,214.08921373281126,8.221676860097487,22.847874903403007,13.177640663354698,45.11242251320473,9.959295776864495,31.484337448936706,5.638784273090522,112.50396342196444,3.275612134488757,13.231962694333623,0.7303681240373165,0.5204600325860024,0.4571087445241501,0.2042091712556001,1.3693739237151445,1.9693331267095846,20.06305112553593,26.83487107947663,13.550316931005332,64.53445362048356,15.477746657457859,21.579413535193964,10.26611332323068,7.522352184564125,2.6442804331202803,6.989913883262613,1.4347407774318264,1.5193281491771964,0.7334162719368678,0.42756330295126643,0.30013453464541645,0.07594058870029692,1.406617260349302,0.5896310241748136,18.370115511441153,17.506345416518627,29.67422406142732,110.18958630274508,51.348695729658054,215.71472773889715,9.08779459459045,7.593659234883592,4.063818540015688,8.467718934577796,2.2230755512995577,1.4084085082892797,0.7766183826548706,0.5428848224580358,0.4671862272056828,0.07253729586241511,1.5978262925217317,0.6145641927616318,13.305878186505597,56.86564112427243,27.217332767093698,66.63546176399869,36.76358048068329,218.03187373334902,9.674888747079033,3.4861793001693164,1.291168253538717,0.914788150288041,1.483345388233711,1.7291617989798234,0.2657500228866242,0.04929803898129366,0.2872528170198326,0.03215351162064058,0.379717544176031,0.032297538832247306,18.89388405999472,4.461559991763097,53.095516242854224,95.94609541490937,47.85681204304743,80.51431870339708,9.686344679011855,3.795158184261104,1.0232603692871587,0.7367200183922739,1.445990882762878,0.8970836013705953,0.23690335604012558,0.018162205155675702,0.27809941877945143,0.02800137152685706,0.1446711494943376,0.007977798442612307,19.01337963560491,12.214666007885286,26.028386461378332,35.11823779725257,36.91376131000709,41.95158556649344,9.525041744954562,3.3687987734473244,1.2881335257800093,1.343362620737781,2.3276419829688595,0.71540372921036,0.20046905305213517,0.014156629873306074,1.152142231250522,0.031400475011316736,0.1920170496856837,0.018177003228161563,26.496449391311188,16.676528196978026,31.992770781152668,35.331255189577035,24.170568894706296,65.78601393629376,1314.0,7575.166666666667,3.0,0.0,1.0,0.0,1.0,0.0,0
7,9.73987585731915,4.731639511424331E-4,0.10160325007356212,0.0053640849861437,1.2821744866669178,0.002609041079485534,0.21346216030152781,1.810137764268965E-4,0.042094785656705165,1.5291953177553892E-4,0.021708727669257705,8.095291784106947E-5,59.359082749911714,0.072423985369233,7.768631581749235,0.13548462811988055,0.60344068566753,0.11947906219882441,9.642682045698166,7.658415323730264E-4,0.3910162823407778,0.0039777472901787415,1.5599502788058348,0.00544988048192563,0.02496241961697316,9.56396851075078E-5,0.01434815623477854,8.028829434406018E-5,0.01324715178621513,1.2045645760699047E-4,56.55454046385629,0.07338155183813883,15.303569257259369,0.16023665137016832,0.3249389151044722,0.051337384889126654,9.721535733767919,9.00982483913932E-4,0.9312377638582673,0.010169072269157852,0.38589826804984895,0.003361307400294217,0.02962849563391501,3.4585325632404947E-4,0.035513861684843766,1.3985869915916478E-4,0.030843651750598968,5.576620428035176E-4,41.592751945768086,0.706851102671858,4.3137844534856935,1.2578700882917906,45.84708421570914,1.0470732620688885,9.586417087486812,0.001586175981019058,1.364959036133119,0.00979384489834334,0.6569584464388234,0.004158166444622527,0.21654506666319712,6.684450082378934E-4,0.13777558036547685,8.961856261754654E-5,0.018783843797531778,2.733909405298843E-4,42.14460153239114,0.7556706936667628,49.71242138317653,1.6701056407524575,27.72779881954193,0.8447250141092696,9.67419872539384,0.0013891573034339809,0.610505895955222,0.0015066065505267134,0.23767563424605345,0.00786119546318958,0.2049436205998063,1.7668562333018135E-4,0.12301865161862224,6.904126269497087E-4,0.019926026772217092,2.1030911927672434E-4,38.320386273520334,0.3678562414555628,48.74912709849222,1.0358331319685585,58.948390347617014,0.8921521774849837,9.72302719950676,0.0017398365968829697,0.21713782123489572,0.004595806817173177,0.37243588438390623,0.006016561152424743,0.12503817870414682,0.0010415226807216386,0.2133526249256517,5.348198997137114E-4,0.025721477700894217,3.55515249281046E-4,32.67923401083265,8.723138117805282,16.580796619611128,11.766051313606138,42.679407571043285,12.94140500472118,9.723672688007355,0.02359696267228077,0.24320165562676266,0.019522599081076935,0.8911888059181885,0.8088413466497774,0.13124752220963792,6.260810321561284E-4,0.984527383797935,0.018244825597129234,0.026489857111723074,4.0450182995456653E-4,36.57592171430588,14.328583050156187,9.730087433542524,13.284010900633163,39.707724153995514,21.510357790127564,111.5,4200.0,3.0,0.0,6.0,0.0,3.0,0.0,0
8,11.304176225936493,55.313633295910975,4.741596090347441,36.33527941037054,2.400418603172034,10.949383987503172,0.5497158228162912,0.17881813161643978,0.28106568779949037,0.08011354709764176,1.8970419933781202,1.6843000744027865,52.840773642657204,81.88286084726164,17.871041489919754,163.7638129310054,28.900238607412952,100.7370768155002,9.830070482238979,34.14542226728316,5.780048904352608,23.93099438224102,3.078782032581164,11.408887129872824,0.6133603022953625,0.28578030496372014,0.5256926664630837,0.16088551739765197,1.9795949081317878,2.0741841933672402,53.597110735617605,244.23114471226415,30.363815508362066,198.0440286617026,36.33173572502263,26.882399006765816,9.652595556802131,49.62321516955635,5.5572347426013495,68.34521672270647,3.3166635522117645,15.928434698482612,1.1129796552170916,0.9144621743814921,0.3678869060115955,0.21605524354778866,0.9258786302889106,0.6589202459713149,32.30289832460524,18.841006249285616,61.14292998963416,188.54146484748398,35.73179277945991,10.644786682107492,9.45376309247508,32.51343943865845,5.387016792667169,39.79584391277567,3.0439842639589973,9.837596272053032,1.2142417098196732,0.9816120833319263,0.37779015509846414,0.15009901768536016,0.9396818658720665,0.534198239903666,24.411773621441913,20.90287525690002,14.217617210755712,87.87509518877906,71.3931718997385,24.662079164173512,8.260000765125616,22.490396751313682,1.4494671890283146,2.4565238225194044,5.436106689744613,12.00155659174459,0.6089111989459945,0.4388732834093398,0.5125355939295737,0.2962835199724681,0.2970336274270191,0.0819837903528137,36.70447848247135,1.2369107998922488,9.54561247792949,31.967316126235975,57.745020780848506,37.417380473214365,9.882486186550306,22.121015976631906,1.164557328578425,1.3391352589332004,1.037893283870102,1.580812198671516,0.3301234653782706,0.10682742803984299,0.3596568646822573,0.22294058158220997,0.16756883035475803,0.0263041770372038,36.47560596149229,20.059844055505412,7.795458725867081,16.361300714765278,14.644321006001825,18.589719855772223,9.233431404908234,15.372610491570104,1.3382603615070647,1.0269789980235569,2.8419563821106966,7.901188456065829,0.24540040473791344,0.02334411822582092,1.1683008784839755,0.3217078276591178,0.1254188210580249,0.011622920312456387,38.11317070615648,28.984345212782586,8.012731965594117,23.597702282332317,5.311051404884895,13.144902009543486,702.0,7575.166666666667,10.0,0.0,2.0,0.0,1.0,0.0,0
9,9.496266426834158,0.3931628628868746,1.449458442119405,0.7951599885727467,2.1374542309602482,0.898755788668041,0.3890259335331149,0.16157304737551625,0.151263448478193,0.018270802398775928,0.1789701495285183,0.026227498829815354,43.46783776774359,1.6238958599465372,20.441532809869,32.33435487182809,18.398180575069794,7.048444436045438,9.562793088513752,1.4186429720745357,1.7862645677736406,1.6265646029380119,1.9203388417430494,1.020384813005839,0.27652933578531663,0.05502757927486421,0.20065876770535626,0.022477298621011953,0.21392875708191172,0.039439042532607355,13.814414215493835,56.2680278593168,41.84094203429365,102.53083511403383,13.793968420488097,25.00960012768652,4.539904266100785,11.090312947504106,7.271563857337429,10.367244265222526,1.403828268536549,0.735292646095432,0.29194348435570483,0.04941867957331957,0.1840493916375315,0.0350543984326914,0.6991783426099911,0.33195732469195377,16.81157260288506,277.91667995252385,88.18136257032224,784.0181385853068,51.42572499272039,55.28888428343976,3.521886716531806,10.321132899735268,8.13102960032086,6.853354262337313,2.141162998804148,1.636566379831722,0.4588774284649566,0.10765651123153257,0.2835148780040468,0.044545209936144185,0.7034097714221996,0.3365827110346063,16.567620095917555,154.60347617431668,67.61651861029011,2371.402083206407,43.56286273208568,207.64289513734775,8.695609295487008,4.8634098011068705,0.5608059939490538,0.25262151737705696,3.9543434320531317,3.886589108354437,0.2313729534761058,0.03205407660435606,0.6866687314826191,0.4564214094517878,0.1183552956661098,0.010811098246896165,38.43815020944589,7.192003201132417,66.66751241842378,3.2257870916882867,38.82003166033976,367.37293059063006,8.217017429611612,4.246026290036223,0.5486782977874777,0.2433101685111439,4.227601255592658,12.499107360423313,0.23265844224209578,0.03841585975790087,0.7893130569486722,0.2545950222532702,0.10763025583950354,0.005623387596961066,28.698532370633856,60.609460777573126,35.42832738933373,16.04491921338635,46.809346531712734,187.28176040463006,7.440411314219731,2.127271607333591,1.4860347718978146,1.3013212117740016,6.403334439741417,5.015523996927943,0.25072863788585303,0.052604195591006465,1.0206094517409678,0.40421036214180234,0.27256339184914335,0.06134360162730367,27.70391902099812,30.789240365345655,33.33677131551445,45.43263487037192,33.21265341913284,532.5137248584097,1011.0,7575.166666666667,3.0,0.0,4.0,0.0,3.0,0.0,0
10,9.28471840576476,0.1276317178324895,0.8500519194516455,0.4527291380375081,3.069303326828535,0.3394152958416662,0.24325847129903708,0.014640018569317202,0.09548661476389839,0.007295637244914592,0.09103366424514935,0.006337590877746462,31.544814246041433,13.284711480672055,5.747468224395549,0.6496293809909759,30.457014685849416,0.4323462987030882,9.431942478762908,0.43720518855146734,1.4264286159020632,0.4729705619133952,1.9508195309543928,0.6160689617698109,0.1338366415715959,0.015081921346480166,0.11365362106672754,0.022897342096913118,0.09442745542711414,0.011412897780859193,5.295751569996838,15.54253270255902,8.800382579283857,5.378382105430134,36.48596501904865,2.3907890176134927,4.51455583485258,11.067167183546726,7.357511776230264,7.8060389707471,1.5300078963879433,0.4117333684878407,0.3039841525953965,0.16266782657750306,0.15929144890961527,0.03917942350156061,0.5876783251443698,0.24886744972782093,18.652994377123953,123.81340973113463,106.71097494993495,527.9366820248149,48.715392470755845,99.39513235727262,3.4004148781311967,7.094095390813586,8.64247103466148,3.3149502754633495,1.0915258333622246,0.5610411720601823,0.4844705382194927,0.29103412871015655,0.23339081433407524,0.014604980769040002,0.5126309134924716,0.22523834832819717,19.390708941112326,80.46429255117684,79.58808630566264,923.666098356328,29.15905260960525,56.263613699784415,7.36646062670356,3.99131790560395,0.39558474731434234,0.13162433242829827,5.2003263144002005,10.234270384980222,0.19242240568434207,0.007147494245305149,0.8722672132818505,0.27547795174575,0.05395815614746277,0.002588371171932352,29.09460786014696,159.1506918091349,71.04622016475842,2.957168279789314,72.28453496128222,258.71810363572405,7.972241849994343,2.503655296260784,0.4846064147115546,0.17637033315970907,4.229473110811283,13.266268173112884,0.1286800166984952,0.008210733087787163,0.9740664326489912,0.22010604844810971,0.10511173450465149,0.007682647102221566,29.54091755892351,83.88337722373579,32.54217838528148,15.520006305642946,48.296407781962145,166.56171269925414,8.039242042655564,0.49457893698673433,1.791490096091432,1.3107581093400247,4.989754100262104,11.283874819059093,0.2216605782130597,0.01836531473619379,1.4365888334643653,0.8156911854231057,0.22133164735243305,0.026850819214393636,30.29777258812787,37.75064779844437,57.137719810207024,38.5848207622346,20.016616566682178,266.0570295942168,897.0,7575.166666666667,2.0,0.0,7.0,0.0,1.0,0.0,0
11,10.087616593883283,12.445462647609055,3.758850096072073,10.047187117922325,3.447936293059508,3.196851058292174,0.8734303787188215,0.5161134540871354,0.30605789318880333,0.08912395735000933,1.8214694750398563,2.5842430542340615,59.58617227497291,73.43761722590138,16.119305426632348,122.84346248486487,18.32263437378842,15.710964567621675,9.99990971856735,16.922853611087913,3.7347798603787967,18.257535250317012,4.012493817339902,7.012402928178189,0.8395469103726338,0.5233389905280995,0.5248097307814527,0.2056799984722043,1.6802113173557354,2.025386143638069,25.816795533083603,121.8311454233784,17.73938745210733,179.24683360241613,41.37514590900206,51.516277425373076,9.81978549513706,6.301988114215275,2.371380831223241,5.102491771932681,1.6477272585274163,1.6021117883995744,0.6332314389191592,0.5488094129474709,0.4936166369730214,0.11471147453213774,0.5026970634985702,0.25176169050105657,37.90184630587252,20.866749802188316,29.721652978282435,22.842919599766255,9.34713745502093,59.35802606864379,9.342088930630604,5.877152322863021,4.455791372199391,12.981248183942801,1.2652884421443127,1.8983521281646454,0.6178850850026182,0.3391626939986335,0.35254807055864384,0.07027162843101814,0.6854746442286613,0.3774377186842834,30.44316780369147,6.843874432801939,8.968340611834067,21.23052020803439,81.20255882795468,20.85198001456919,9.297712465457346,5.253675556882142,0.9641317093504694,0.594108475291733,3.245995523723653,2.513606807525134,0.3078026112642424,0.0638610938748284,0.26569118584657825,0.03124384468295989,0.1737343848760679,0.016681585213187872,31.579987205936266,5.57221481506492,2.9003585387157442,3.842963226476389,54.03691858944307,15.058426227418577,9.609641775340338,4.554265937714219,0.8938577361281131,0.28371499310829384,2.041092748744444,1.1202810659789872,0.2520818073040283,0.02672701292916411,0.2799698047117915,0.03251212170464291,0.12018918928394769,0.010924355552529396,25.25596847724281,15.510360949963616,14.620707342394958,19.362211405843272,29.542713976381624,22.06288221765771,9.501485563195821,3.4974750256226335,1.0243091674179667,0.38208613298483424,2.801257344142246,2.3642951822532754,0.13714163117512962,0.011730264489226695,0.8684081688319977,0.20441103446370382,0.12537184698206288,0.00905533698066301,24.699321670785693,11.864721607250363,7.669336275670962,16.628403994227643,22.338987030460192,88.50847339351242,1780.0,7575.166666666667,2.0,0.0,2.0,0.0,3.0,0.0,0
12,8.539051034150528,81.44287841513574,8.416278775055828,80.86235896512032,5.569814396508509,43.50549038986602,1.4502556582655992,4.569637475816947,1.1675571493017007,1.002544571003962,2.4144829129127237,2.6041284687201633,32.21834380781136,290.12892226714274,23.17783711800519,244.90723725185583,23.44734977237707,151.3228336967591,7.914702988987745,21.9281617008673,6.310645034320133,46.990356542025765,3.986898433033414,8.730813420723512,0.8282899427353083,0.7185172590461872,0.48324532961036604,0.20465699309105662,2.230838245136719,2.0622274875534456,33.66363782200504,298.2179592167151,28.804150638984286,142.729939532354,8.044218912398895,33.07261824297178,7.92398501761827,16.018291543194096,6.273965028829353,45.77484747833989,3.491358450794147,30.189734905984253,1.411327715505199,1.4114597280890846,0.9022748673077908,0.8173208013610691,1.7493200215582188,1.3870728172092497,35.31737879304791,252.48596945076477,70.88049708014707,406.1292060849909,47.91439596283872,45.71160353134079,8.49095183088633,19.151624448756447,4.961517027514272,28.762244550356908,2.581707309399332,4.416466972141381,1.1427747508227837,0.7058078327177086,0.6728032263524929,0.3678542216279345,1.6647876428109145,1.8823562953285393,43.20764795460574,172.7219828980693,21.42985941603334,253.59135999236605,45.65330977455722,44.52950523645449,6.955210760938919,51.835826490849264,2.3534392360133736,7.345115829713628,5.576552890847589,16.261655930930683,0.6786345229654316,0.2052931271220743,1.0578206808993167,1.044838491468711,0.4223527647732785,0.18540854794921333,34.77157844974353,47.71520642987629,49.40061249210193,100.91260683175183,31.793588736475108,491.0730762582113,8.09497029193216,34.06574556885928,2.7549400261148462,17.14789393564972,6.494654392774072,47.929265192257745,0.749651946177307,0.5207868881425409,1.111318269042156,1.3674648607256208,0.44464390903890777,0.22952300283568425,32.715023487509285,25.395260996604083,22.257303700494607,48.430761194641626,29.725604731181136,387.9928647149868,8.97504723574533,59.45385917733707,2.9060031379421436,8.046441192589379,6.110095683708044,25.489924752743253,0.43890968663927377,0.2158485088891948,1.4886497712393982,1.520181604809291,0.5543647339744292,0.39048448503369426,39.12399742532014,18.63514662559614,20.549852566069543,45.70385678463841,18.397002663933655,124.61465991095312,1322.0,7575.166666666667,3.0,0.0,1.0,0.0,1.0,0.0,1
13,7.691291273320929,65.34372547212149,9.061475276328203,110.49825950691033,6.063194579707824,39.207186596000504,0.9734935888195212,0.9593513838084814,1.0985320146200233,1.3039487492462773,2.0705452792770367,2.4728381277313596,30.312253072984713,443.6833411202791,33.75751608751244,382.753066758391,25.083889089945544,88.87440784746381,7.167843379547504,40.303895148092685,8.741180877971688,103.73497601415913,4.54845963569785,21.27959115533948,1.282022770423832,1.45069273115731,0.5868796773047567,0.2724727444318659,2.649103130300551,5.647005316260071,27.626466507135437,148.16880837235146,36.94237286289319,167.6834396697163,12.731587791100663,210.63778865706556,7.306866561003846,33.785063366129584,7.250144041146452,64.20759231847052,2.8611022214439275,23.242064786218624,1.4108612367595574,1.878844498935587,0.8534443258161678,0.371699042253649,2.4730375841394547,2.2758189669737874,38.68691823346868,425.6558603221183,77.19599211810039,1232.2049324216657,46.138754879517414,115.1078413722662,7.151615741987561,15.402573330455185,6.38078234467247,54.678865956658036,2.342461555273592,7.4434023321402405,1.0373985200448959,0.8290636058782529,0.6552360741339587,0.2574076323503374,2.0414777851719226,2.178336190447705,42.044789804003365,428.3228127233768,23.98831271352958,159.68391028391426,46.72271542216456,200.49477065389848,5.173638256624854,39.16782377865062,2.0120398145203056,4.866665859315231,7.595991531422554,16.909403075070674,0.6536391407659005,0.23314079795178191,1.4453785775965728,1.6910799730792103,0.3622138999538663,0.11343883567888328,24.24175364801357,239.18046239172205,50.610252684533,75.28739302762504,26.369149405187446,633.274947353436,3.9544364723540917,33.694348230690416,1.5342061061046992,1.7394400850720388,8.874694060893153,13.474650525218344,0.4212152304981009,0.11736043336145573,1.111181311618457,1.7967444475386474,0.28419425832111533,0.1119039717698836,23.02352664320176,79.42294381211174,15.916720920226899,20.40398898832053,22.248947134841718,378.36573670209896,7.8620474686485675,52.325479408761986,3.224674081909424,7.861715626364597,6.459746822766632,28.072099538970747,0.46470480496558886,0.07141018651593829,1.6662844131852306,0.9809965863161415,0.5118655880659423,0.18704134790526855,25.91528013219865,227.82713540678762,25.91374184998167,109.82256325546919,18.93168448886998,32.104554106782366,1226.0,7575.166666666667,3.0,0.0,6.0,0.0,3.0,0.0,1
14,7.429843102826233,34.7378706244217,5.737158840950702,73.9911035170341,8.537833487571673,76.69465132973737,1.809024716810976,3.2060169438752166,0.792151621314053,0.7392321889415624,1.4305112527759183,2.1893722871658596,41.91162933146835,27.251203331767147,17.94818599388449,198.77640797622547,32.202173047287516,361.1402438493462,8.159400511149354,71.81511588966688,6.230994818686504,72.64181215317076,9.344115327932311,95.86048922566758,1.2039099847588477,3.6122951403479995,0.9606793369855956,1.4418854433357913,1.5589163679025442,3.291807240364653,34.300215046271134,317.1920000484403,15.238638725589675,103.76007600072847,42.358064668989456,643.5984796116526,7.3664627484296545,29.220380789524008,4.785964939560729,33.771752759707574,6.394748902140167,20.95557656980851,1.469347414198607,2.2786108327248678,0.9408609039553184,1.4659547696262523,1.0501882352282608,0.9708340872537811,33.639670958154625,153.88693141627,62.956757960525465,180.7388452819081,21.817181847321233,439.30842644681195,5.988602125865603,66.74688883858231,5.645960429114014,59.10071942040124,8.930581441478637,72.23602191089843,1.1288703643961304,2.258011053028304,0.8705840004270392,2.1322939244832395,1.1953940451088318,2.216217284694743,14.678985015498442,166.19623260837528,13.000875482824554,68.6119209539905,82.10488123592744,403.4061570863783,4.970727261471441,18.806373471367873,6.98607898617627,32.044487251971425,3.5395884963968443,23.240910688629732,1.3092066884091884,3.251499333443072,0.8971054648216257,1.426763265283454,0.528161272854835,0.6942798037567565,29.86412175073972,168.88905125611282,32.424466119553166,127.65084968427756,52.633669374789115,246.51825806932447,6.579169591307095,53.14211594061753,6.108820373959765,26.263084234864756,3.8561099678002595,41.403611522636574,1.079685531105642,1.5349215899709832,1.0018655184387195,1.5979722563965717,0.6496980444679387,1.044819962316871,26.45407701093097,104.05458995348467,19.072700257515194,73.7739698444853,38.232169617054076,265.8433135366368,7.6712820485754065,46.3838308573348,5.488726541152428,14.371060593217962,3.2708044005031898,17.472720173127918,0.9039549952252239,0.9283537541548685,1.5758544926924563,1.514095146762393,0.5060816604874039,0.9167939402584915,34.59882677274685,22.060364832929736,15.539032339059633,88.62872367001114,15.093703622536802,76.77556293749697,1293.0,7575.166666666667,8.0,0.0,2.0,0.0,3.0,0.0,1
15,8.47987161743829,73.95801680097993,6.994986792398227,109.1419308647216,6.767783262039785,70.90184330520717,1.082682856398811,2.0336976887191582,1.81194673861807,2.133720897411104,1.968757723856476,1.8693520378893098,31.745484943603756,267.67847515873586,19.656460854494046,330.5697141988103,28.08443793981178,101.94082627592624,9.093233882489791,61.742208994313565,9.590204732056298,169.15268372692822,4.3609655910416,38.991326410071274,1.4180682150776995,2.04102338752858,0.6275934916750785,0.41500994198684665,2.566489393241159,2.591794770889599,29.114990036897485,236.01940766223635,31.875569205149464,268.54107156632926,18.33757253095161,35.74655547912369,7.577277691360328,52.6388798667435,9.203066525847785,88.54944597881037,3.9832147672722904,19.134394850324448,1.9105304882328087,2.9257909405212428,0.9986674274887234,0.7301676559509008,2.1242430184266228,2.319182139529149,33.77208771888303,281.90691919215385,62.684681055949774,1360.5463011263296,57.77881197121452,231.62682469067664,7.963371083536417,34.35085614330031,6.936217010695723,54.662260909475286,2.505242215320963,4.193338888091023,1.4857336679269793,1.6831120595794502,0.7148111363783157,0.28961296886356586,1.9522208164869947,2.3476536394040806,40.374566993666846,325.9521856438887,21.53656830717856,155.28356816894913,30.377376176194097,216.07927274243022,5.897410088030009,34.86769366870635,3.2004908893371087,9.41960495393605,7.33763062474983,19.67522001000959,0.710520145924997,0.7559624941791528,1.5657580735725025,1.617371321168118,0.778918254196155,0.7067719662435163,20.93888335299997,180.37926459349686,71.75728546345353,116.05968632294297,20.51872513643729,660.0028079314798,3.6655413472222045,39.88607944172432,2.435076440448766,5.745562523163191,8.851252882769238,12.34103574778653,0.5893465447428318,0.43302210477968706,1.1604564607172192,2.27738358493437,0.4270580464969115,0.23545213503160112,20.628295091596552,71.29514990051197,29.93256181735929,25.685087300389686,22.18067107975879,583.313217599959,8.021876602721372,48.88084099426033,2.775030548680818,7.124394356188433,7.200733744598108,17.017823378731855,0.5177967560112452,0.24470865611227063,1.5567758471691096,1.0977359498894195,0.6048527139082761,0.7770851344844005,25.175142551379345,147.13250832509146,20.688090312124487,69.63370684804639,24.37253889233567,100.14933680148805,1146.0,7575.166666666667,3.0,0.0,5.0,0.0,1.0,0.0,1
16,4.598418184026976,15.153293064783156,6.460590352285715,18.73228652987457,6.128989808496546,25.832447850696965,1.1260113012373596,1.7811934597059804,0.7152359492542973,0.6275615784859434,1.8344439417692335,3.0066543861114345,19.0775444432598,230.95462412504926,27.575427223281608,126.93618739011528,21.572733479542688,245.04515863014797,4.886950518100513,15.154693733378942,8.005409088004319,24.616644976970413,4.3556130575047085,17.048091865032156,1.2177406375035735,1.7846865248896768,0.7800169805269491,0.8883273301964859,1.7536310199637506,3.599561635169977,23.66882867551721,183.93421896320496,46.73590196881975,92.37404111884585,17.08945654632146,144.6221282581948,4.135846616122469,16.283232973307776,4.350475139259995,15.027747641244533,6.460821643298448,25.273845980742486,1.0887030918813276,4.431136917388586,0.469047310603535,0.4691868615245385,0.7694043293262941,1.0656887333167049,19.739656108558375,305.4466403631446,54.154343082263225,143.23007050092983,61.04482726797313,223.98940383824092,7.262630743590305,14.31665059627201,6.4209289130479394,15.615074658392523,4.491534980331111,14.827975102896005,1.3366188657009028,1.9332073004113424,0.6787908897766893,0.7468934897518653,1.0019530646311137,0.9822892735228832,26.84049050470325,131.8730431996895,28.407196954239247,320.585245453596,12.497047950164028,93.70591879756536,4.650392999957653,19.765247939730124,6.008668057313437,41.6521467956298,4.452764716172634,8.229498652538009,1.1842799136149031,1.4875957274936282,0.7931019612758163,0.6728641916057068,0.3132367729701711,0.3015477195810823,18.5453762412195,322.87930394030707,76.76548403362895,288.6629575522067,38.68306906041117,332.41439550318023,3.800573540684393,11.614496405904061,7.128248823352585,58.84120051693077,4.890339847975117,6.394567069292815,0.9558798669113397,1.1637856855867095,0.8691716151628365,1.219545367052626,0.3279731897780954,0.2725941871600256,18.745450661823995,223.86928049365554,40.992401813747875,380.29209925691436,26.537236178832195,260.92046951678583,5.629269743282533,34.37849367292669,7.731204659984357,45.623826387311915,3.9632713943348574,13.361074211540307,1.0530258125859155,2.1003115002954775,1.3652957046150764,0.7760834112348798,0.753577835224739,1.256320369292887,21.922058303094783,126.68852740678332,49.165310231603655,1056.041652917631,14.345758962683206,78.8583732350904,1139.0,7575.166666666667,9.0,0.0,6.0,0.0,2.0,0.0,1
17,7.5481348550163725,61.70015785185358,6.83499050052818,54.940274957231935,10.749752318170973,99.40728575146936,1.6146786526233063,2.3831697502105285,1.3827965797522288,1.7399431021511926,1.6223624254618632,1.565887512872109,23.004343037341915,210.52126337084,16.472965068941892,196.447330801635,34.71599314247948,161.68342857921448,8.393253053417832,24.35059707774379,5.398566979531235,46.30356553775585,7.516772192786834,56.480179892179244,1.5679978394952054,3.5642969776098092,1.226349227590273,1.1187102132545879,1.5154538655511365,2.135226312483741,26.07528736286385,400.2824692816617,30.442297523599922,264.7682713373139,34.82934763403826,240.33030545329123,5.903712338653464,45.7468777920998,4.633457112846976,40.45383413331164,8.798233493534457,46.74699996123107,1.1783461681523815,2.0710611920549464,1.4180660002425536,2.7882985021667754,1.1818551632147931,1.2402838411660349,25.904075833254083,165.72523890079043,44.01023257055948,195.9509552658149,80.6005695507772,414.2497419822552,8.28974291786205,36.93064032115311,5.006722772224772,22.561176195868637,6.32959623073237,31.584596190695994,1.6446413271395224,2.2108208706626806,1.494163564848791,1.618651109568387,1.154805056834315,1.0276227447370356,25.721983689864313,192.07225475182892,54.389115583857034,340.39326742989635,24.50431790131073,432.2688155685162,5.0450187282005565,26.034992715317514,6.897475827825287,27.83087326485851,3.530147280600123,16.470065376787684,1.1516617924345123,1.9777319354873883,0.9725366426412128,2.3925171940036454,0.8637833931325529,0.8117728743801552,30.903826311379177,53.96280761431404,79.0448425267622,556.163488539598,56.51288720064385,154.18775785909287,4.829383299416828,12.791164424324522,6.1580204429767065,34.21279394340483,5.178996075798705,39.783918456688056,1.0287309685649282,2.859349118509503,0.7944759269805,0.8191630598469134,0.4995096552866802,0.4069960682608849,18.89339897561311,120.75607257706785,35.05685816967606,494.0137773182866,54.26575781736659,60.22160433557335,7.741188558185182,48.567182215169986,5.895014222968908,41.67124730979155,3.171064747027137,19.986521441254546,0.9166199112128454,2.7488784342725885,1.643928339203628,0.9210813876693397,1.0397540730063763,2.9182666612780124,22.229439111247014,284.0871665215358,47.65473298099746,1131.0822686453878,30.551118486347388,40.28211977494488,1110.0,7575.166666666667,6.0,0.0,3.0,0.0,1.0,0.0,1
18,7.501694300741057,38.16616516170496,7.468515133757478,106.47421613207169,8.31622235400237,41.76936608624984,1.4149186270747742,2.2316049208435835,1.3362532252416037,1.1076175356266693,1.4019448430930261,2.10543993268982,34.14066624314682,296.23752330913754,13.83746999160594,134.49815441159342,36.51173519130264,478.36366899804966,8.748781444603868,89.76715638966475,6.940507154196247,99.03580269735767,8.898866183399857,82.67803282234574,1.5709766549802968,4.594589016280238,0.8285459285726511,0.7384912870068112,1.64562017709385,3.1486233782696607,31.876353553759298,441.6543318068508,25.662580832591484,291.7048567214979,37.22647957557633,554.3448614436885,7.028865024806356,23.152399448093867,5.290682782576825,32.72907868415158,7.05003311895948,33.20670082441471,1.6207124288046912,2.059031862911206,1.0411185793922069,0.7596841708162905,0.9356746383806523,0.5289321334813862,28.80941717797562,272.1151663679243,59.91786297135971,167.57394257001502,20.823726566576482,388.9158211995155,5.338906992220651,36.51419061363797,5.237704065897536,43.09404528257515,8.359734372740173,28.973274450407533,1.2238287123854572,2.3225026957930726,1.002876038198975,2.6974650014527266,0.9077625586509372,1.0136836739235635,18.38393340868708,318.3277902217033,9.688488083628572,34.5008441016061,75.21311869573752,556.3365214012061,4.9228836323112946,18.911499716162293,7.35662499495915,54.27657620742241,3.9591817355492736,10.105263043071977,1.0951793250129667,1.271484482826621,0.7459016863173152,0.5069078134405576,0.8626954075229621,1.2279704312997615,29.314780441233488,226.4698352956974,25.462736523329617,224.75071771188965,52.29198560366203,243.40236927903825,5.401013926377031,25.689715866959904,7.077724865035918,48.912581250840155,3.849559957204863,13.289796176362136,0.7253768018514932,0.7891466205196196,0.9252894995919742,1.2996547933157057,0.6139799138340415,1.2723578411777454,21.298009865938923,273.5287901425967,19.924109125454166,84.87457395298985,31.712792705459847,184.08884458781702,6.588188401008786,47.01479518865845,7.115631239310037,50.204763207127854,3.5667639874893418,23.844484132299343,1.1041130021189733,1.7566316243775464,1.7064854493395634,3.102402172336684,0.9398006634607654,2.61590031301885,23.5812786192791,118.21283457721795,26.44390737728225,92.77753671911229,16.151891268022432,48.197842008819016,1202.0,7575.166666666667,6.0,0.0,2.0,0.0,2.0,0.0,1
19,6.8407391578243715,34.95716875161922,5.238601640795057,29.749168554336357,7.311878702611016,32.29697280200419,1.0691098225182325,1.1242147185605762,1.3555115825564104,1.316785598145419,1.257635405032754,1.4734220076152997,28.5191581194781,422.0468331644252,10.868233493965528,51.594709728331246,34.60311984421803,270.7704085747542,9.341698937118053,54.65122745848961,6.730300472399523,80.77593073300885,6.1479766207787385,62.20362697939347,1.5076209938888858,5.863934250011541,0.9099719453729888,2.1938303350961585,1.3647326992758344,2.2353685139438224,45.78755123987546,202.07729392268322,19.524361924723138,229.70519641168536,13.536165220792903,68.42137113935388,6.073293223383023,19.57620924704826,6.344551118233077,31.937267723279426,4.972915027872273,45.820465954763236,1.0164660051972854,1.235970065275283,0.6117562460426885,0.26434618594524606,1.395653769287259,1.223542643127421,26.099768420588536,207.801853626904,70.24983957994024,189.4541784440686,66.63496027594785,139.25689797343196,8.94221135315507,33.34655188040287,5.729159538195534,49.690774781977694,3.1285244256870643,12.30899466820708,1.0303548471783628,1.8541799435570159,0.7121440707659503,0.7476670364329924,1.5835459662788545,3.8083252393807605,38.36932696852573,130.28429183376414,26.468256499581162,483.89612971996434,43.392679819633,152.5658076199137,5.912526398228847,28.005241467343787,3.1555231411220426,36.03621100833394,6.722777192880001,53.73699857482674,0.7389684535162306,0.41615204988776816,1.1609366825407377,3.157909752462375,0.4181541165029878,0.13784449405897106,21.412909200158204,268.76612341964795,52.17918178013393,118.2349891539545,29.854823077140853,547.2529618105806,6.6936679176639675,78.82799626812957,3.383633592818861,32.557957251993564,6.643527196961582,29.293283006782644,0.5172893881497663,0.28725156944887864,0.9675332040842537,2.165751919375901,0.6389258951457428,0.6505511250496394,22.94077178855671,248.06004683111314,17.67828671282708,106.67417936450414,20.608896707577564,85.70316269803594,9.840058112634575,41.1236195231863,5.008812724380596,47.87112323802036,5.7501599314897955,18.495383315750704,0.7815005533999386,0.40129920439333217,1.4574236983736588,1.120236120952632,0.9539155657569479,2.545605559660855,32.8964371377497,129.06963809153416,33.744082536412236,104.7546849218823,17.910529914290407,48.89626452977621,1380.0,7575.166666666667,5.0,0.0,1.0,0.0,1.0,0.0,1
20,6.537341919899346,47.94563375712714,7.931909462105627,64.64750874054968,5.561000819816146,65.67417208247328,1.6800093682130113,3.8732007339392607,0.848324892857863,0.6207716275975024,0.9756252462871255,1.1772044866529257,28.672589026416258,156.68673943981946,50.15725498510358,321.62701618578177,22.050596500601483,179.33781672814155,7.8597435078682665,66.37549608872153,7.042394322927954,45.238188858690535,6.259466096647455,26.57566617803492,1.2992643977730438,2.365325640339182,0.8478970872764274,0.7509163115235741,1.6235652100302564,3.4708869847713726,36.972264505303976,338.59073996509443,42.71554864809362,417.3644874579838,21.535503301472463,175.18129327987103,5.397899450237656,22.452849358618177,6.700123431606595,30.50576431411112,5.790987088179071,38.754056616279755,1.793772037110084,9.091662091294072,0.5334876796889716,0.2802556982396039,1.0853528497118714,1.3203922040498535,34.5909212150447,174.12842606110638,19.636501636021954,172.07984206353973,69.71617274743774,397.2632268082304,7.35926629637563,54.11960802735007,6.185979580537623,50.792877551866674,6.431015067124288,16.710591136099996,1.3667294257201534,2.5126594011745897,0.9897567657135006,1.8363685128652074,1.0828685322672977,1.2679445009320227,28.344948870003027,42.95922166408557,20.73779165031902,81.00051479304638,32.293161748255606,493.05543132503266,4.853680541547034,20.994985345224027,3.803722266825628,17.091022355712724,8.206144155996334,23.65838499858808,1.3058119847267506,1.5586270517164058,1.47414671088162,2.643888435548922,0.6314589616520009,0.6878030264396667,23.329536143448234,256.5815927016121,55.863053686198995,214.68648361173194,76.87812740541376,671.2457714100477,4.0856871579323535,19.94724951906231,2.0683780848899502,5.445837384055432,8.405560204183738,27.170594720035762,0.6993768177524308,0.6014556971891237,1.2448431523640537,1.680655958193061,0.3543900267881526,0.1284061287111521,23.030397419913662,99.47972334585086,17.197350922613047,50.13022979019351,48.5071672751658,646.8452136371046,6.458930841894616,22.35794369861881,6.692786433891799,26.550727741437036,4.945991248780385,25.673510607474373,0.8075841234504181,0.9778630368870358,1.737802832489493,3.1079184399587145,0.5486789105867694,0.3484913574364571,29.595817097001692,37.40560671921721,50.26090552878142,576.5302522064296,17.864346129157614,90.77386967417334,1077.0,7575.166666666667,2.0,0.0,2.0,0.0,3.0,0.0,1
21,6.763085945982771,47.974477120359,9.407541855037262,75.0121822982067,4.476039094534824,19.026169768527158,1.5076754582408456,1.992990132634094,0.7574563545357739,0.43589441847979393,1.6127444770352675,2.7820529399891436,24.862827907368985,314.09947704861787,33.48005879573846,156.19143635428495,12.977497624799584,148.88833514556364,9.676972109762538,91.81918596967547,7.571976960435559,73.71368134683544,4.575113582502172,13.233464037757239,1.3070280052979857,1.2395367868854585,0.9063183364996078,0.6951416660074888,1.5397087181840972,1.8564850452907589,28.172305981928723,697.5074725647669,45.95999905780156,415.7532886752601,14.141251451524587,64.06164744915644,8.228565778020164,88.35994273991635,7.887850255145385,49.06468893269664,4.152001323533458,28.94665614926674,1.1813387592900173,0.8763267947989017,0.802097714694056,0.5557473308872016,1.5843699631278103,2.039464567857542,31.760622756425725,156.7822421450264,52.208988533364575,1205.0114361268425,38.48425805608299,182.99221896067266,7.840606529618369,85.8536941836421,7.381334995300172,104.85345438886462,5.223439006654676,47.04413665812822,1.4620580318974845,1.881221082968992,0.7613696679670172,0.8669244023346674,1.1960710816571112,1.4073427427262784,32.81402548761463,249.4183490197499,54.890239891419775,1114.6870274526923,43.71308609338298,134.33260638130506,5.849509218899515,33.801207517906164,2.640906999630628,8.022688473131044,8.308124495515495,49.778485339481584,1.1073476789916394,1.501638498066245,1.1062277762584414,1.485327016687394,0.5523881303663583,0.5281304001377993,21.68670247678345,188.13611061852552,23.112127154966526,92.97076932429735,81.30873451359645,249.880518884329,5.188286707287522,35.263454958170605,2.841391067413545,8.023574799486065,7.6400638099735065,91.5659918359825,0.8696079121939714,1.0015916715472464,1.0952349687776408,0.7949974103169961,0.3544683301259773,0.25433902742686587,22.275877281082824,163.46216277827847,6.280125301371505,17.68754108039466,46.19584979567417,360.3916911908664,7.667030263085698,66.59705774811928,4.554964648828682,23.85117725091064,7.188644771832366,119.44700424547666,0.8465877839687445,1.4923859442379852,1.9838875592299474,5.21554689632966,0.6841570664587062,0.5415000849719007,30.55446972641042,30.72137187681236,15.036368719886902,35.6576585105881,11.27138544018829,94.64276248033256,1442.0,7575.166666666667,10.0,0.0,2.0,0.0,1.0,0.0,1
22,7.476631288562106,54.2885165815663,6.925423494159581,77.09565171858574,5.5431620203131855,45.3369437527642,0.9397743146683235,1.2935009027032622,1.4303541127924941,1.755864648629951,1.8158077515918527,1.4083533077686898,27.717913453637365,398.5600392488266,35.7635772479729,307.561549604362,24.81678137608937,140.0070457179706,8.223579344289389,72.80572674241479,9.216117843030643,141.9524678440539,3.202161152933746,15.371653746309963,1.033251446646741,1.145874975705433,0.6427706376327653,0.44969904548232176,2.499196576648407,3.610077536601127,29.82567754239339,402.3401227585491,34.54063441408829,239.61360915279138,8.315404780255475,64.57893763448777,7.33802845902382,35.23714741484436,7.635167172085803,93.31446694307249,3.7547580362900943,24.12203823860734,1.7216178088594365,2.4334005153026137,1.1503369921660382,0.7333663809489679,2.157803845365974,1.876802167405473,35.59484415998887,416.58858455612494,76.67880742652868,1011.0454876087534,45.88517694061381,213.77062825982327,6.886236237767354,25.107992276645007,7.301547915947026,77.9698436614835,2.3570076798255544,7.773914631168556,1.1825273985637235,0.9887279866869246,0.7169541316338972,0.4776139091042318,2.107164891565101,2.4530531377355156,37.849346293761485,479.67085881191605,26.996159885016787,126.02055200062365,43.007027686236306,38.31858005752935,4.309751701080224,31.4545949824864,2.04544479626678,3.9960181637994476,8.402580174991854,13.845899203428825,0.6380783159044444,0.2805926802746202,1.4672693932804888,2.0480754620760337,0.4576990262938252,0.2274066467142788,24.129605568920656,132.44436750434704,52.22495195002255,48.75175488025662,27.886259254130017,1051.0756542901872,3.34481699479453,19.089658898288082,1.6687291367503543,4.609671131609245,9.746883065944099,15.968697775263102,0.35020388707138006,0.1253101912282315,1.1583320800310923,2.296463625070409,0.3260135730087256,0.13936008741171974,22.045154197005388,91.26995952722231,16.68115286177575,19.405624280499886,24.23459503720468,675.5175341540344,8.303886489757025,46.15680981176863,3.727560946000028,7.251728874785778,6.755117338404456,34.80764003061854,0.44853360755400007,0.1331391553866438,1.9137024300240995,0.9999410269267234,0.5062839042496782,0.29091861088210286,25.649183317672374,176.1999519146604,25.83210206200118,109.73260982819775,21.116646867851877,90.33660068376504,1309.0,7575.166666666667,3.0,0.0,4.0,0.0,3.0,0.0,1
23,6.0550925111664196,15.495583239350735,6.855982267430851,54.47849437858253,3.981443250329045,31.78983110164775,1.4852360014840837,4.63783222580356,0.8300805767113189,0.3728051949816335,1.3007210778548968,1.6954472769951385,20.856373218726677,426.4873802487468,42.823513829430865,208.57080777246557,28.75442833757876,185.27084875337542,5.439973333454459,21.05611319810991,7.966845717002634,73.0479953738381,6.6463122100405325,68.13248907629361,1.6404200606728807,3.2684325996826495,0.9808456889853389,1.1944826214238125,1.1912486279689618,1.3165908321939577,27.22705090798413,140.8147463137048,38.0825413493223,189.54936033327462,21.670851844885817,567.9433666362103,5.974514379280548,15.816495303731466,6.948363326539431,71.1155732146671,2.7341572926054862,7.628549374673937,1.0067549126224278,0.5890411587765231,0.9622185014627651,0.7326948654399326,1.4779240327478818,1.291872415176978,26.331758295974858,252.70913262081217,97.02317280309937,346.16870129070196,35.92354922120357,164.47281967464542,7.214285877988089,25.335612357260374,6.790868714464167,67.77567559866287,5.322050947609336,79.1581576987001,1.3507462932737513,1.8985017437287834,1.1545387003455976,1.865237311445677,1.340380886637496,1.4743959822083104,31.678574169791023,381.89130509304255,32.18444754897409,394.8339948020025,61.15975138515333,213.01434080756124,5.784809315348187,19.9641346089718,2.4557181696911834,11.590287606865115,7.049601287738826,17.46721257268587,0.9981633365940167,1.0159405475612713,1.157242098834019,1.3828168177518876,0.6129187511862643,0.5349753156985483,26.956928983776276,300.9688739609144,33.090738483441626,110.02616539913288,21.840886079096716,181.01018448808165,5.430283316172833,24.333506405764105,2.4357521103824986,9.948542913213123,7.145996153936335,18.284235159625386,0.873417793358506,0.9415078120483787,1.1402486775061147,1.6961730440456524,0.44748135884114515,0.25534813509614085,21.16946998010838,208.79891356995734,15.901922909165439,175.1666905066796,21.685249463556044,157.93590839815153,8.739663945164445,76.41039087542647,6.079257154336007,29.748993067593535,6.750772825333962,61.2077421986597,1.0994834078930664,2.1159585023220027,2.0809630279203386,4.145483731660982,0.7920442198090047,0.7789922311588752,21.836938555058452,96.40150856542962,33.9966190716753,780.1007027606224,25.67840258574169,79.08816156656592,1374.0,7575.166666666667,2.0,0.0,7.0,0.0,1.0,0.0,1
24,0.8592153056648458,0.7925860565069478,4.097370850510178,4.165786454177563,8.99325065200907,4.45703211257097,0.5505704921631582,0.2235232165302248,0.2372973326039988,0.07222859962526854,0.3865681490135701,0.21275678852887683,24.75028345355164,3.2472859848137716,22.59473193925728,103.82945326157326,43.39721852045915,11.23818922679199,3.1260249981872485,10.381005956565305,6.650524691019541,25.354480175773823,5.275093489372948,16.642724654810063,0.7178480560226873,0.9244967871598697,0.29597110996363946,0.13318468944121578,0.6605414441512879,0.6552827800259132,29.960248478227278,207.14614098780922,20.788505931852068,79.14365682075834,21.673328809910437,163.10660861817294,2.6167951164600063,2.8775868776944993,6.779171266627074,7.7545443286006135,6.351552010374608,8.474457592385944,0.5533612715776068,0.245201586409116,0.23269821873763916,0.10903093241063663,0.410613566312546,0.1947918613968713,6.453215937106948,18.847324191228452,89.90680223129121,26.323303581834445,78.4596545197243,36.41893418592593,3.2398417803189683,7.442310366439638,8.525916564504174,13.731852479657219,2.9642936666666273,2.903120859114238,0.48646294510887744,0.4662354795903454,0.28040301033850307,0.05730820253611001,0.4002831753560317,0.2089854918254551,10.986568295678428,27.440923195129532,25.20236901191382,2.8715484922526766,45.713275624272036,171.37506935822174,4.807634057198648,5.312537150881528,2.769927805478366,7.104687063256101,7.160779540686933,7.294533914265842,0.4150217707954236,0.08857455105512817,0.5557975486320045,0.4461850749116122,0.2560450829042623,0.07590471745114583,28.57033649077051,6.052991917226081,57.36005761536253,176.2066567747345,17.616702888396095,472.70045801066476,2.7047112021499324,17.29588470366158,2.6180575535202593,8.29960056221525,7.914256634382513,8.340831039100664,0.41484060466263994,0.250565625726422,0.6536076005317729,0.33544780756294007,0.306649132982778,0.2239335172703765,15.804341563800245,158.44463694992876,19.173728403855005,136.04010016881784,16.35629348154876,153.84883327679614,6.227203391269592,23.292298052868997,3.322170318995039,14.468214721594258,6.3320545795748,20.31960397511769,0.49325862646349855,0.28193335998592456,1.0337057214391192,0.2630539639923785,0.542644332539742,0.39790761956315784,31.508018771477317,127.16595683360215,40.806733825278044,142.36797745148982,19.98210203132756,57.46314352184477,1098.0,7575.166666666667,5.0,0.0,3.0,0.0,1.0,0.0,0
25,9.240450022624577,0.10511473510082787,1.3136758600234788,1.3540346333279079,2.966267184165625,0.21088379108573688,0.21330245536677786,0.01090020422752046,0.16296352186020574,0.013668632306929638,0.24950660750256545,0.04152513084246185,31.25956229910106,2.099541620615696,8.097312547439753,14.412066828646642,26.75866838626291,29.84184293651387,9.542318350452918,0.02465062447788393,0.6705916635738531,0.32400747087650045,1.7420328330756025,0.31107750116644983,0.13253022583168267,0.008275496132518555,0.08433794687181848,0.004451413735453828,0.1591094983052238,0.01775811108313678,15.013752322656371,30.51564312894243,6.1800343776462086,6.2643166048020715,14.608538022469048,1.041973042899552,3.2670870557600677,9.99764510748978,7.900250926762324,5.878585855389572,2.7208159217406744,0.5714514279950955,0.27413986765267484,0.05188369105273369,0.13957416945743525,0.028796603859210013,0.6066152973431611,0.3311070769186219,19.381852144814804,61.83713590926133,90.10993957519531,412.2935172932739,69.28681868492963,32.73343433425323,3.186897874565368,8.528262887602345,8.653758719910023,3.66346759915703,0.9292297092837047,0.41100522357008534,0.3051527837876144,0.0666955044341569,0.18674145814919368,0.011448431374330941,0.5723973194323249,0.2773062974753391,19.71445695684598,93.93073365952841,34.637677288728696,302.29075906661615,22.602670457275998,8.586901777108828,6.835381632627443,7.133106753565686,0.7294877310812572,0.15421623398887582,5.862903686852946,9.690159704835459,0.28104157736633234,0.030883332833097802,0.6847243618634506,0.2772421152530127,0.13212549841426702,0.020115439123481786,24.544974445108558,200.59192763561947,58.92770525149729,7.932484534172367,78.85188067870283,167.69348842584327,7.628192689331663,4.146409466264169,0.34555143164055024,0.0739555848287976,5.09961584534657,11.654187892730013,0.1418593855092435,0.015924855373373657,0.7889506145476355,0.3360674263569747,0.12169806648179599,0.00958664648134798,27.20215986575003,113.15712421481209,31.26090445154133,16.14307592003035,45.643959400265715,307.2179497475479,5.87963298309681,3.6692765669497565,1.588240267657265,0.5773379739439766,7.945436318451384,6.741517667291145,0.3908051626936245,0.09648224759774368,1.2828849254460677,0.6517984781372069,0.3505440589676354,0.0942932951258117,25.67952135234972,90.66488725802378,49.09779711498375,44.388174796331654,31.325892003271665,583.6428005240564,1111.0,7575.166666666667,5.0,0.0,4.0,0.0,2.0,0.0,0
26,7.9459509173798,9.892396548642694,3.291392037434584,6.876088068481613,2.157457802135287,1.8133959660046322,0.42992430292472145,0.14919022702319468,0.36193100009515783,0.20918621315153743,0.9262324222843117,0.5811614233345636,44.077755715759885,62.42812834355374,23.548296720037033,158.15934971321448,6.545851263988058,15.706831623286059,6.793847126134383,18.354483512935897,3.664035490209676,11.282380528233244,3.9989131491854044,33.57439963361509,0.7232113029166555,0.6650212259827734,0.5969417287948374,0.6389656752141313,1.0722408425918606,1.560685205501482,37.631975123256545,164.2938896688533,26.61985390091259,104.2865451175377,14.417084859838814,134.60146838238282,6.7741548681377965,7.830029222198247,5.059880646440724,12.137910031579185,2.1075805436968307,3.367656256723089,0.5086622992754787,0.1252505378412017,0.40652424637058077,0.10431712268850048,1.1322749033972521,0.9862129053083851,31.80126386712556,136.82396460773515,65.4320964361742,1342.8770326872425,41.12477256926983,68.40662138432457,5.895231138286722,12.10221647886352,5.598780605013783,14.61725830478113,3.7823954161506714,18.574825187463606,0.7492901480494089,0.5727758954940589,0.6357631157833056,0.34066738797702156,1.1264309439888576,0.985638959475142,28.43222083720654,143.49449686201308,22.41654924418703,161.15401752047225,48.41962663517442,341.9883987378325,7.040136163150799,13.911129283405025,2.0103800043175957,3.9385705766936994,4.332755724296122,11.566651009707925,0.4337794128135334,0.09948224151952101,1.1477962307256038,0.7093472730779486,0.3877785343474142,0.13603778259688237,29.972520489233275,109.37965349613158,37.95864955293776,193.7127268426758,48.51746172326744,782.2347266735663,6.683562156215211,8.138484701028128,1.5369635318774124,2.2802120622031095,5.526732647785317,14.225072698003087,0.3507744826955034,0.11736734594853729,1.3506418822802746,0.6241791956141703,0.3175977806795073,0.07591797653069844,24.140610797064646,107.2818003099765,15.049029518203481,59.55008071288356,43.02921520589396,506.78933648876955,8.029742626454743,9.369734518110475,1.5601343105171874,2.35352731147793,4.839927377832119,10.967733761154545,0.49112423975330055,0.16029335620833848,1.1776261272216741,0.551626472783837,0.2671650832536726,0.04580694659745898,33.820935551708324,119.17951382813798,23.1740158182442,49.82273062705842,28.283410622431987,147.871240834486,771.0,7575.166666666667,7.0,0.0,3.0,0.0,1.0,0.0,0
27,9.693542293535911,0.10771888032561527,1.1345935353105796,0.652665019068726,0.803715755476112,0.09190900490163957,0.24852308272337695,0.02480094792114182,0.08079170752463682,0.002427928735207924,0.2667211534492548,0.04055155325087165,57.8162338535651,3.5157353812208125,8.83160699900871,34.9000911361878,1.3245167173607664,1.948469895966137,9.674172683411658,0.11454235606981086,0.8294039700672253,0.47426081442597723,0.34704804777529746,0.0404879903966739,0.11527150856722394,0.026558581662484596,0.06879574428245765,0.00308829352561622,0.24313306994310757,0.033898090091387154,54.393345715595636,0.36419550149224844,15.704842735366567,13.962651304605169,8.07857513586152,2.4886780461668834,8.758485477232062,0.6561897767832431,3.340386365289704,4.248340174839779,1.7216003131480313,0.4895005498637276,0.29865488045086214,0.041531318813337714,0.19469158427311287,0.02628274486224283,0.5116811475555638,0.10038694864872358,44.26797998624782,3.55489096178937,36.52140862601144,267.95277845346044,47.35184146716349,14.396472348056504,8.233618508145659,1.0560207216253246,4.6735229623624654,4.349580455863118,0.7757549765674503,0.41895972738912485,0.3414444344812862,0.0686706411534256,0.2360168541536494,0.03392902141504409,0.46437525518619116,0.08217182792616598,42.463680254660574,4.281598644731214,23.609033142609455,202.5005888703943,34.66854595425121,13.497092035608652,6.496341331060543,7.8565244883296526,1.6271077347950287,1.497857979769444,5.335905035666849,14.231438948976175,0.33663163418948117,0.06535242198915917,1.1682001355404275,0.7277152383418473,0.13616296004798292,0.017130520983552774,23.08702642908722,149.56329646892624,56.03176522492571,68.610125152891,79.394107894644,197.3916134452685,4.9216415659693515,10.556466484162373,1.845761952844009,1.792842915494094,6.6923129405359125,16.297007720521883,0.3757218312707256,0.06334748199302218,1.4229835077557107,0.6162574932014294,0.09480942859049704,0.006290520825416197,19.934313911857995,118.67213058875893,27.917824729336456,59.55592675372403,60.8887739086468,157.71162007950963,8.63030714212462,6.0398558533089455,1.0216864353143285,0.4139475065203048,4.787944600447097,4.797680645944851,0.29399473067774107,0.0760198112395419,1.4529333886724474,0.6340710021249824,0.1306783423895957,0.010856540440287164,32.048754790296584,69.1229239054254,22.957048248214974,24.53021763859853,37.27423542322114,288.17681222390337,937.0,7575.166666666667,7.0,0.0,6.0,0.0,3.0,0.0,0
28,9.38539405518592,0.10785365888665294,0.9804407391098461,0.42439786724994016,2.6620251752213386,0.4815332530477378,0.27624747211552936,0.0019273722410271387,0.08413018578910222,0.003188881054943931,0.14063001347915927,0.009178154606308657,54.90134106759613,4.65085991311398,6.603588967178747,26.63230081532509,8.92659093771266,14.316415911975547,9.49788341648951,0.03207001655531168,0.38306053898272496,0.0886241209630809,2.134681144029991,0.09883852715852047,0.056195747648733994,0.0018989161846081097,0.042649544950689115,0.0018957509979790224,0.06879418595000542,0.003363941543405893,53.912232002942666,0.32202494440190105,19.991061676380244,1.6294384149805488,4.892129982032649,1.5999617935994161,8.864587527176866,0.2964211108981427,3.5506621018250124,3.2035037126721324,1.1544368002699854,0.14091748168784818,0.1442452427703714,0.008606462076200973,0.05841025579680126,0.002194482736388767,0.26974365064712624,0.02425193808795315,44.33586052169039,0.894519345069919,40.20214951474009,153.04891989585062,43.69557347091725,3.2813573553892486,8.194904850170857,0.6054556563215556,4.939005924617729,2.5217369927929205,0.7530604197312629,0.09892269952426784,0.2597906046184987,0.020591964388673757,0.2420524883569772,0.00484743967682348,0.24217448176420062,0.021494815167356417,41.73906716635061,2.2670536383834348,22.62794236724955,136.89451267372422,35.0620321482915,1.303378666005094,7.032296938691721,6.556093514276423,0.8783607486870598,0.4529398007007155,6.280476585971161,3.8415018067364084,0.1984544876197885,0.01821505799271199,0.8652202484098903,0.7246342266903214,0.21680203334859996,0.02296207051658016,42.41557322323718,441.6717854488282,47.4269983031821,38.004947128773864,67.88798391145725,347.3396874552189,4.133571317673899,13.36783922109159,3.1131922327603934,4.25106671898963,6.575424533721023,11.984768764831903,0.29971258907247816,0.0184032724346831,0.6394266166934663,0.21612210730662426,0.12663925226593695,0.0070908523944133725,19.00929276353101,103.99593883968583,30.04246382984608,113.18496849748908,64.55958574871684,119.70115466585581,8.734647874420267,2.314154855526486,1.5743517728516232,0.5790767829000584,4.318061840373936,2.377351252266364,0.29740434173653923,0.03683474602912578,0.8299586251555969,0.2807527401446461,0.25513854140360287,0.034487761491005194,31.31218875682235,68.46758316494589,22.657393909681378,188.93761749431383,37.49817253743295,331.4967431659841,1187.0,7575.166666666667,9.0,0.0,6.0,0.0,2.0,0.0,0
29,1.1102713631167065,2.7396729134136306,8.544394095474699,6.966575775916417,4.079632855913109,8.117251700605166,0.6074113002820599,0.4781731103397501,0.29123522762261,0.15940402021667707,0.4477281661990773,0.4825968073484482,28.3132492965242,9.659875607543652,42.60769550319439,357.4120723816177,18.803608648008684,203.40384882542364,2.4996602831290806,8.580406196658059,8.547028412553558,12.647127235383566,2.9453551223133365,1.7289308858153736,0.5296010654763879,0.3920465805692987,0.2163059761627048,0.1027070685912778,0.7573187524666298,1.2697036916843254,32.83090941216859,83.30761924319522,34.34693964580662,96.63522650450739,14.008596542566718,14.323214317006375,2.2283484168146246,6.534765207205664,8.45848497758276,6.361679941992385,2.684884483728363,10.72717218531391,0.5281680228886352,0.25793238053004514,0.3302294881990221,0.19413505530771188,0.4285372053613433,0.3330282160767803,12.85005456803249,33.89006065727457,114.55176163987068,14.159896463504396,48.002484369119536,177.995851238279,2.384551575506397,7.687872518645427,8.717055451434316,7.628951737541675,2.1688853389710387,6.399762504666375,0.5176714191457781,0.2639500473855666,0.38627424629395857,0.12901300535513105,0.3458391712774272,0.17088864425087116,13.600793526715218,23.868682648048466,25.99186645393752,19.74358478834598,38.68093642364705,216.68771634830017,1.7875180935109671,7.604179440198747,2.179981159831999,5.829126172493804,8.818441027546443,3.354521257503502,0.37317422315117865,0.11637202366871797,0.5399644106078856,0.4187200862418637,0.14759879324436684,0.0439661851033929,22.695537719219626,74.54375029356429,49.601292708387405,157.07101656883182,11.138156848442911,106.41754865894706,2.966377699493966,8.630278560184854,2.55759301782892,7.988542420441622,8.030879361437405,8.201402062185315,0.3761363889247742,0.2125748690489853,0.7199057292547448,0.4078036657361712,0.25654518764823414,0.1758842866314054,14.60318934496653,164.15233026148536,17.375791866913982,98.25761235238807,15.268038286422179,130.35640331086162,5.15099673475637,12.711543708989543,2.422526221972986,5.473405851537447,7.45292680772436,10.518480063395788,0.3393656545352698,0.09534977212917649,0.9967408683398534,0.18199650940913298,0.3229811695045436,0.1573462141741561,23.159219198646735,102.02085260125449,29.404790659679527,54.07822930776467,21.97333313598981,65.71431404327058,806.0,7575.166666666667,6.0,0.0,3.0,0.0,1.0,0.0,0
30,9.915004752452587,63.1295117858457,3.995173046139511,74.89773617007685,2.987859226460027,25.583370032327714,0.7182487632744354,0.5201891699871175,0.679663087535484,0.3715210183216617,1.2505494278818492,1.0437396758469306,10.44258174022963,71.77466942147569,16.884465498633162,77.06209787501406,6.7885033260548235,12.974483617463013,9.723354649423712,36.65460449445868,4.3947765701434935,44.93472198377622,2.473262966929183,8.606066161033691,0.5817789943442847,0.3099322280348106,0.47790647087312393,0.15223565545435067,1.4052783338424781,1.7302589842779885,15.98272988328902,15.686017167868716,14.190447482555808,91.92495260861538,17.22454891905832,34.07081836513655,9.702667072959912,10.456085881842425,3.553786031985377,21.566784978662707,3.139616582623104,17.73212628790683,0.628940460660829,0.4379186840010405,0.47581997101405554,0.12640737082103493,1.316651823364223,0.5065816722815646,21.73753697848399,59.96772301752644,28.665115858629296,170.9651210495959,60.57880238124302,53.129176086347485,9.42434632896981,16.992762195561973,4.108443274425708,19.010663944279578,1.9833075045623454,3.7494337549517325,0.8339738765502491,0.4977657902897162,0.3899796501246236,0.18859046519879546,1.4736409619159725,0.5476380797431111,16.963861759318863,83.05291676640216,29.306943674816246,130.41163133567127,25.333122456192573,103.11536023799361,9.695919881231365,6.437818006776247,1.6849629546738418,1.3131385612701225,0.8527530971328585,0.6203321989379789,0.24056031538354947,0.049181618638619216,0.37877033901960894,0.09059428487661063,0.6901912254658822,0.21332079171109422,20.618062022516497,19.106914827602925,55.19685064676988,71.54958139781455,50.910378319876536,61.86361315779638,9.629333714710121,8.262487272894752,1.4754251569104953,1.1164003599452774,1.8552370974594847,2.2801085755449293,0.39232200993599364,0.07446021923374509,0.2820880625405089,0.05484296443161271,0.3324863823235926,0.05308353396733797,18.42450132243261,17.840348472320095,27.958545615110683,32.88257129983919,43.346329990019434,55.02943812734433,8.818370349383434,8.173611150428462,2.2793931520584216,4.568213948972083,3.2949743465616357,5.687495259519761,0.2744975915411971,0.029563001015418675,1.2067795918629416,0.8326124246865924,0.42784698666738613,0.0772696779231463,31.215610041570823,33.06490798438783,43.98784413765435,18.64188753458891,17.407531689487374,107.76257599419695,1663.0,7575.166666666667,5.0,0.0,1.0,0.0,1.0,0.0,0
31,11.11598611283936,18.700163759534096,4.285289174983854,22.199834766401345,2.3053158548787436,3.231946029581369,0.7288802433436995,0.24336022661986875,0.3453359335059133,0.04608986121136635,2.1595436915510837,2.0829615434490565,20.78662714213628,56.8612397250374,6.98078111427963,31.62139383679721,18.35630964262541,52.50701157036464,10.789522379933798,25.502876736401866,3.8934870631746525,22.841314635265572,2.6172332054721905,8.07430849724909,0.6717987356485452,0.4261164243939683,0.3623542467776556,0.12010041776178923,2.090115326151184,2.372557053118639,15.293578585120926,128.39428746700023,12.911683181888638,87.41396203675903,10.944383846614448,16.116353951319223,9.391267358266633,11.484658777398478,3.972852181754635,10.205232875713142,2.078607465935704,1.8484964950624052,0.6515406454797822,0.26371664129141015,0.3328879040153852,0.06190282137892485,0.5641271499950995,0.15934006204911222,14.675731624083662,4.51296614287834,56.067909380130196,101.54652657408141,45.29072034715418,207.49486373895633,9.50178930212889,15.205255656663272,4.6470738515301155,17.944578317107442,1.8418666519088505,2.3599287074741837,0.845565908229554,0.5772614402609089,0.5025915028434557,0.10132330559191553,0.9192649259366711,0.46654810905164085,12.612137949743936,6.286510463425441,23.51069407269012,206.9306471004295,45.91727021683094,165.6451424301247,9.741801599331472,10.05604498661689,1.0542572226678564,0.8251402169143073,1.20965269176472,1.1042709821133716,0.28456034874419783,0.03256720687851749,0.25533335840220894,0.051416290884362656,0.335100023694588,0.06943089939589991,20.237535128165717,3.1777665813713667,34.23887679267959,80.97000553429821,37.9888747205766,72.45377097710522,9.7168934369008,11.622204748139838,1.0440205095298711,0.5470310345055756,1.3400834260440349,0.7890241531174268,0.2527062015273791,0.04396442300891034,0.2393528634063092,0.030890160183904333,0.1354154917601793,0.010933097767298203,20.20731011894454,13.465996085129792,6.74742041008417,21.396978735859523,21.50068629223643,39.01851165421695,8.667475671863238,5.846808811408627,1.0221899646161081,0.7594919572162512,4.7741606615706536,3.5349020382067033,0.2331078771033411,0.026179061294010587,1.2621784580506359,0.10285163326291667,0.21970518570810252,0.023571310952111013,20.891809613997754,30.65377197382829,7.99562040185463,31.97262163527165,5.005904465406341,15.123963918831315,1194.0,7575.166666666667,6.0,0.0,2.0,0.0,2.0,0.0,0
32,9.679766366648119,6.223831040033033E-5,0.223574083013788,5.905413220983948E-4,1.6760038945365983,1.1766106465224341E-4,0.24713490066734264,5.2576139491362694E-5,0.02651181067046137,3.402942001613826E-5,0.00992692026850749,3.219905081932907E-5,45.443261853088174,0.06203058270611393,6.5243967838857655,0.08772038994112626,8.605031770725187,0.08254762158190308,9.565202624298806,4.4586620440884334E-5,0.48301006620904535,9.106764808230121E-4,1.817762446561921,1.2537090373305448E-4,0.024502308935582934,8.323150315902576E-5,0.00642849500417714,1.8427336182193003E-5,0.025229262401569523,6.245283646029528E-5,35.826147364619565,0.058481627378474954,26.58726993193262,0.08018770789042994,5.635231580449101,0.051645579885118226,9.669063111872372,1.025058891813032E-4,0.09920635873736486,9.663673785693305E-4,1.381503732893554,2.711796941690029E-4,0.05602853489031031,1.4741062383214658E-4,0.00549369434504547,1.8717269792586896E-5,0.020785511556273693,2.5851897528438885E-4,39.401759087445335,0.6132207132009923,14.369766485651466,1.2195726333784231,44.89917428152902,0.7221807163450709,9.451213595875078,1.9349003130874175E-4,1.9712281638997733,0.0011589592061873489,0.9323599219718248,2.282804762190689E-4,0.1971828339503849,9.378802825015236E-5,0.21072659797446672,5.46588226592095E-5,0.021154478465383285,2.3343213862056473E-4,37.02660528290708,0.544639340264595,49.57367621386962,1.2834834302990967,37.290435524873956,0.7034800618822628,7.880336211765328,6.803304004923298E-4,0.13225166096144736,2.667817477787501E-4,5.7835613659449985,0.0015731936165027539,0.22307090688979506,6.121856802163644E-5,0.11202746159412535,9.174239086864171E-5,0.01987477076631287,2.2604528582612914E-4,17.537069168597757,0.41129653480837713,38.714194959976346,0.674731306449261,83.80050560327068,0.4880661028262626,9.374233445455861,6.986920510214234E-4,0.11190962795155784,5.97134503226144E-4,2.453185343663162,0.004273755047043412,0.040746338812841655,1.957198424996941E-4,0.19966767124361373,1.9880879792628903E-4,0.03486711961260542,3.6169094659610664E-4,37.31984589028596,9.92744664342731,11.872193444854398,11.753019495516023,33.639181498277225,9.740747687629739,8.347815893813225,0.005918162632570044,0.791236654270527,0.0014249067549508226,5.0806406502707855,0.008592013509542867,0.15776424882221857,9.18343185757112E-5,1.2031099693323686,4.480792698597112E-4,0.01776023588624421,1.7812098377824038E-4,38.298899083438506,10.046623111953958,8.01102971119738,13.862430315840953,12.685202815603972,11.839725257650546,490.0,7575.166666666667,9.0,0.0,8.0,0.0,1.0,0.0,0
33,9.570118121530527,0.18404340000814204,1.5423279910524719,1.6185524149448973,0.9035954450650072,0.10427792781259133,0.22349717309760345,0.023439459352504237,0.08176252492850467,0.002885601038473883,0.3209553161246139,0.03573329077632651,55.91395311577376,7.879378899237031,13.015817071116247,45.77426988312536,1.3792515092922306,0.6283247478919499,9.703130354516926,0.13546720384181546,0.6488492169612369,0.18394278176638124,0.46456761136991387,0.10539981241616583,0.1344133623179639,0.021775854310307898,0.11198800705134268,0.005003436684160602,0.15329993667411293,0.014254198985694924,53.92505096993177,0.4784841010292833,18.707878325072635,9.088689848751656,6.74799585421616,3.527624862989343,8.548559325081962,0.8868048138104435,3.7482944011712984,4.402177468039036,1.9511656453245105,0.45418190071131825,0.3349680162084821,0.03232588738369349,0.234309165913146,0.02604973994782412,0.5582176673526186,0.04464659571812366,43.455781512086176,6.820208138105011,40.53353349869433,266.6426831681805,50.35985870614796,16.605014987421026,7.752457319304001,1.3262372640602327,5.427399051149818,4.043970054427361,0.8653893821247763,0.352476002561642,0.33384063739973147,0.037815461097514054,0.26559842199410477,0.03412115076283621,0.5714151197270896,0.026042220988923816,41.20255103380577,9.977909975296424,17.321548037990567,171.15714289786487,34.731773566566034,10.869219567827047,5.700344212031443,8.85370546016268,1.659074345820172,2.1566293192909582,6.321855071771185,10.89936339522493,0.3919490629601309,0.08891793978704511,1.163097113098615,0.5418393169780361,0.12149164772618978,0.015448962255469472,20.45091416748655,113.155325257293,57.96717541716819,89.92008814032265,83.47074499795603,122.10249301025047,4.392559607876032,9.957777012606051,1.8482898539226142,2.220554930931388,7.211104592333155,14.362366845058514,0.45324618494342334,0.04552752710664421,1.391888157795632,0.42474256255651865,0.14654176136358113,0.014969294748867637,17.87365789726327,104.72321156762733,29.67112282502691,73.59196468293791,63.74223953703313,98.75558565334516,9.002925472006053,5.002002555668619,1.2231873998099758,0.7386007506247028,3.9430562354302485,4.683545140958759,0.3455738804449451,0.07389172254115718,1.2264157226432943,0.5504993443435808,0.149380505205081,0.01486670940737854,32.68787103950779,50.498291489546304,22.90364101321198,24.33202534486161,38.70585261389267,197.91734776359493,1042.0,7575.166666666667,7.0,0.0,6.0,0.0,1.0,0.0,0
34,9.334915430442836,1.7541005187318216E-4,0.1596138007518065,4.452686329229119E-4,3.0612940970449354,6.315531656569775E-4,0.21656945842841138,7.07962818569173E-6,0.05587251818556326,5.9790436084536715E-5,0.01335860463284711,2.611750102100741E-5,21.469970056780944,0.05766396419639144,2.4457193577408396,0.05036139958718555,30.93167803691471,0.08979427021791644,9.487823426129413,6.842725730106655E-5,1.1522192721351041,1.6708202810507018E-4,2.0138835522819596,2.039413547196482E-4,0.04279787720883407,7.568299908310157E-5,0.011690093046846138,6.59478709825369E-5,0.018824362126024334,3.252435236715084E-5,7.2560815351746015,0.05860834467783673,3.756251848417263,0.054071120107258265,21.298253512461716,0.06855954046781053,0.33006301631167084,0.0010994988668859846,9.695146858494146,7.244630079811256E-4,1.2758686205873457,0.00603871151391818,0.04615526260309961,3.268900378319415E-4,0.01724736550964022,4.8783885560642994E-5,0.0176229501548521,1.8248411318026001E-4,12.559803576168427,0.5302926854952618,122.85196769435541,1.3774873371502647,46.243512454619044,0.6315113088419857,0.9259053817223076,0.0010625902469146456,9.70760138882355,4.7012887660975424E-4,1.6895514786045416,0.0015140934713251044,0.2004551929096843,1.806055129160883E-4,0.154512793840562,7.08154685241131E-5,0.015449212622315162,1.447445313027481E-4,4.963014746029115,0.6088839117625042,63.46754293346722,1.2476874719366005,14.852110311438475,0.6277227323040326,8.905309635935431,0.0023759727006121343,0.9323099734775252,0.0010530616765169253,3.7099053732976564,0.013926781157672596,0.17717439163958906,4.1880117342908745E-5,0.09539390058934293,9.278920648348243E-4,0.02163894685639681,2.736353706430646E-4,43.060957823084834,0.31638465481914724,58.54874407492603,0.7824797551792598,27.10933421695747,1.0103751634722644,9.278925141622853,0.0035035703473229552,0.22695676375960194,0.003724730387670179,2.946189977005867,0.011854052050933227,0.19084223953889454,4.810843474286068E-4,0.21304795024699943,0.002549365541796975,0.029900923541103464,3.9945400556299845E-4,33.70069726202575,7.646851038787431,32.140922565396835,12.667359831681644,21.95538772063398,9.745449031778609,9.824651952597787,0.013094517083808974,0.18003209604242773,0.025166889913511584,1.0054682766480303,0.012779225354140245,0.12057662735139314,0.0017404837810029343,1.0981633778030293,0.0021441437682408406,0.043366142771008774,0.001204153628359645,38.71196148641086,10.543846897623414,48.023599529583194,19.064272212615638,15.367213792579118,9.247082420707004,1073.0,7575.166666666667,1.0,0.0,4.0,0.0,3.0,0.0,0
35,7.039939274766986,45.839524239876106,4.431285440446066,51.531737347987864,6.390834489102441,102.98540187502053,2.0311105295472727,11.718453654937955,1.3215262931887606,3.008136702685797,0.6778176206986318,0.8994308426560595,25.83431465542594,459.4340335974893,9.922088659532442,15.266240340511013,29.380149403153812,244.18816661569983,8.333403536796174,36.44457727450184,5.140253429526952,78.20236025419214,2.521467835005014,7.211838566104319,0.624696021779588,0.390466929298409,0.7041250084591812,0.32763616929541617,1.2682471985031813,1.592230851025291,35.10395660273657,102.65835727853046,24.158235800424684,54.861392070792306,9.594308767275903,39.70941068259436,5.0715082019282836,11.928580231281945,5.771839207335317,29.75057233327739,7.092654919975818,63.76809013954925,1.525531766008728,4.39948343258064,0.9969470845999512,2.2077878098208954,1.181585161522823,0.9740388883129941,29.26064118584525,103.97539873290519,57.12574004810118,303.79474020706067,82.77200504949323,440.5538785362555,7.203362719647809,26.28209219843711,6.258781317633846,44.69761407645097,4.088483919417393,37.491034546574625,1.2167067006539765,1.717266615012721,0.40906485208724797,0.1583411814813153,1.2854124126550541,0.9734619214619643,28.87362542817759,133.7418938529674,20.754796255862594,69.76029717685763,29.328788377121832,103.58254766685678,5.066046009180554,13.952110186367005,5.08568228388428,63.79730380827035,5.866159879765705,33.03741786600432,0.7025029373599256,0.8971401702130347,1.093919390025069,3.1715090528596,0.8682230297333725,0.40443655592609784,26.02672838293437,42.83690539598353,73.4206690867478,683.9604430373873,49.55555097225348,1196.9616838698046,6.429919766033211,36.576315732499864,5.47982860398649,49.14325076249298,4.61265889516849,9.951363608392992,0.9630056158190847,0.6011726263855819,0.5885303232174304,0.6692597382611593,0.8435780968752217,1.0467788472588655,21.91192809970078,175.65769159620308,38.837391080254335,213.84572234820197,30.61437599979762,270.3270445121974,7.755747294794471,29.724101172026295,7.3734306578843105,57.231462176431016,3.120826756375907,23.773158854851513,1.583959967374455,2.0844796953806863,1.2897008684234836,0.8229626945970531,1.3409736243546926,4.435661537472673,26.68634301305213,300.33795543499605,48.70636277836422,1348.05271696136,14.354561805242419,116.51893269438943,1006.0,7575.166666666667,5.0,0.0,4.0,0.0,2.0,0.0,1
36,6.175361811512914,31.561895210920103,6.057525499040056,69.62209084283832,7.006473993712362,74.06435371646734,2.0695075538764365,10.249224739478883,1.0143056311165028,0.9204283886283914,1.6666690980848482,2.440506895867607,23.092806235351834,366.35849774238136,25.417755549730256,145.6023233951259,31.88500045918151,369.98256141647244,6.821669023941918,22.868643596711205,5.99102852645754,81.69327670318017,4.348973899767223,42.67068844198204,1.3782880640901205,3.424050138496037,0.920192081480058,1.0222788503811249,1.6526582301903727,2.25893249478849,31.87880532171243,432.92787926895505,29.138098449034747,272.00835181370286,29.36231818785303,205.2516698403454,7.208540612231458,22.955667138760006,5.844056476718217,54.54794344701366,5.905741790649899,61.1800455871069,1.2327928058045028,1.9986408020722377,1.3386126835026044,3.0607321734611737,0.9113637195603049,1.0248501142119146,28.09328483267876,214.9844873337196,40.49429346319053,253.82124938401859,68.6585885741782,73.14871710833431,7.252611007826075,13.137573595736916,5.641571105578512,62.665721001201916,3.336099366443726,21.91627800785701,1.348427509966359,2.192156825756726,1.017503032604684,1.155453087791684,1.452211594498373,1.3428895345994565,28.75206377597346,225.56286478064953,21.371153571082903,206.71304050115273,18.36253926398053,124.59950189741406,5.119440768829909,15.487607954063776,3.2656818195447275,21.070499123557028,6.043742261220549,18.793033777697758,0.9166623791064789,0.8325998098195921,0.6104781415152589,0.2662048328817198,0.8456700891683704,1.2235319283066677,19.052285892103004,220.15378759234935,68.11110177784663,124.66352193126535,31.096353999007977,691.9954964996244,4.896928728641663,14.626346193313312,4.8058515961631585,37.136932301125015,6.064335608663056,22.58041942754942,0.9334722047426469,0.7941071908373042,0.5896322894042769,1.1244095820480315,0.9884679352112758,2.7755468050586667,21.813764760462547,154.04834554665203,26.423075727177814,264.90773812043346,19.82883421981404,227.26958082303264,5.573782894092046,54.30010955264896,5.138093348468756,82.84476056028319,6.838521541155058,28.577349596710526,0.9411650652873867,0.718150911373452,1.3068060051662185,0.5860257578589967,1.0598403801453111,4.7352584234635895,25.95074376077747,139.0529600458309,38.335595196564725,471.1534850166388,9.557841176903525,28.980131039328935,1141.0,7575.166666666667,7.0,0.0,6.0,0.0,3.0,0.0,1
37,8.819912078050878,104.39775547720934,7.0196672727916996,76.63770055429606,9.681624672816527,113.68614765328644,2.526892639857491,6.342670202975886,1.574175368267362,2.2023540094275202,1.464835977368985,2.73078550698373,22.221817860571647,313.0685658657247,20.820286350887876,234.6842659524243,30.865204919216243,89.36923649119308,8.732595109346747,80.93435234106683,9.063966765665631,89.20515378628785,5.9466028439679315,23.007396945102993,2.0410179677372953,3.6532392717103,1.0862508406259268,1.8147280898251157,2.0828022064758693,4.475111757244027,18.473216992626554,72.7833940871211,31.34281201294292,196.20460600903053,32.66031971882001,128.04875145775378,6.447749742377933,63.016332445919225,5.602726075030938,53.09592425107597,8.941863849610586,43.02708978531256,1.6215382763482413,2.8877533979132064,1.556703740214168,2.331632091914583,1.2102892202943212,1.73450855444204,35.068646079480054,169.10119030161079,24.549500096923488,270.1063873967155,68.23493020954322,168.2733190337356,7.624124638696025,25.64915732375205,7.103668635407852,33.08865191031069,5.476985283811698,19.436654126943615,1.799036729660046,2.060504592341777,1.2515323281785522,0.8530747159154025,1.3336884125369444,1.4274129092803103,36.21726150273584,245.7186429883269,33.88493951214508,440.42443623293946,23.06230541489449,241.09350027859438,5.105918598556241,18.73603154786904,6.205563253392016,23.355598804182083,5.826707581633646,10.262300946699604,1.319921310994143,0.8064886725051512,0.8090463681471383,0.6136106977032917,1.3599142472436063,1.8612495410704322,20.462838849356007,109.2589689377072,70.5780964848211,498.2449027290874,35.438381846362965,1060.298386692817,4.994552103275018,27.978199454426793,6.562068068945279,32.897461024656074,4.3741499461060345,11.848005361051836,1.4903119618995146,0.5546866797378475,0.8912830812163478,0.5717523849700628,1.188679619534854,1.6209191493475281,28.174729442972676,83.08217707606026,36.44862100422581,397.37593345982987,29.759145287184225,324.35491119562744,4.645330452687413,20.33340752414425,8.275579713371604,72.97308012623733,5.104670700966767,13.380354639088631,1.2556686378896322,1.4423334566498425,1.56406319117254,0.6272340580593286,1.2235728241147419,2.5413897324219925,32.09023323278887,92.47539375540651,48.548746549409884,764.3277728405916,24.9286551240745,189.9093031987183,1308.0,7575.166666666667,7.0,0.0,3.0,0.0,1.0,0.0,1
38,4.824341218969614,49.459635436029046,6.451760172225114,30.06405369949911,6.80289854132493,38.89376215756187,1.1853347132200966,4.669241846677065,0.8625588596916829,1.7992244898845233,0.9540951703839465,0.8487778203746129,18.030705391717117,162.21338930291554,46.05414163709875,45.57111666432687,23.909008142163984,47.67849218910867,6.706421602350285,32.71345458464054,7.091114222854871,33.283966242049274,3.630594819836764,20.778824945499373,1.0365661311696632,1.4686106737092401,0.7527171112881259,0.5591420373570061,1.0122629739011504,1.2594647283352123,25.48968822605586,412.2944982337173,33.57618674507173,64.196912141698,21.87621403453358,171.38619037177426,5.881541765112417,22.90105124762392,4.906260789943081,12.104902843924357,6.91649264315038,47.606537640195896,0.8227027546745618,2.48416934370287,0.9385517926867727,4.62269187893806,0.36908997815957856,0.4236036314581082,23.24366346100636,76.55810241326844,45.09867119828728,914.0064731845545,90.9901853288923,86.38289387304606,8.526390185146484,18.60780739812901,5.2882407199114905,16.03692416152583,3.9558624737769166,15.31187607312289,1.1392164714170305,1.3389183341426274,0.8798610332740651,0.5899040735286853,1.1307983797463586,0.6159445549921211,35.01604386579951,139.4096221154146,13.91738012289486,76.30852619639171,11.472317965224732,83.80749274342415,4.56129120250675,11.562677100243008,4.003213161541508,26.340423581798667,6.78538716635806,20.027902203133582,0.7567836672989683,0.8336203811572656,0.825694681965476,2.07909472695912,0.785063619076033,2.079857637793009,20.343825379479366,54.934781879988755,83.13129242551683,129.83871138323363,23.726280791471492,758.2603318345907,5.5063731044629876,37.993731599079524,3.5539194089283184,52.19563816876757,6.471960557210089,19.899666894658417,0.8959291029389463,1.3925149242995714,0.8074645344334256,1.992411623645108,0.818779005922048,1.226263598561323,20.279852237546216,110.48728280438198,32.46470583158474,81.61279094574923,20.1543705448434,364.83778581883354,7.248764920116486,62.30958443312124,6.984842179225529,54.796650622287366,5.829896079264953,21.969645155120688,1.0680708140366868,2.2914768435673154,1.6292481844503344,2.9096496320659786,1.2588536569607318,3.3525899872633915,23.488441532335408,148.8302875062378,51.94533964248987,711.3896379577008,18.76216286599042,167.49003185798935,1650.0,7575.166666666667,5.0,0.0,3.0,0.0,1.0,0.0,1
39,4.557058288749815,12.934894211072294,4.821817436673218,24.1249222488226,6.723997898189431,57.225623997672095,1.1287792954977565,1.5604216942168365,0.664932056983772,0.6684026869469487,0.6525528313749875,0.3534435829171112,20.619886026207197,169.8334324473052,29.71098779760722,196.22686847697474,33.81692933303573,412.7929140764038,4.417122082225901,25.14619790222973,4.452041285047525,40.674590609478685,7.644047744570615,55.716620043689254,1.2370963181721732,3.3320484334864697,0.4982349847081683,0.6608457182017178,1.3857713893668546,1.8905695642581983,14.497820170713817,235.0251298714309,32.821159318436024,243.61400527484298,35.979305278571736,358.0608619527842,4.473946789403344,23.015102966488577,3.2979714876981423,8.767094783457166,6.845745533432478,28.802563462577208,0.9569029799365497,1.1597140853551877,0.6801199309949058,0.6622814333331096,0.5553108497926551,0.2933751847883304,17.814610610867657,331.11467933506833,33.537024765711685,154.1140906986656,15.335469869779194,117.39794605661605,5.119438257211497,24.032046594933725,3.3422209484026184,33.25607540370647,6.76518973556078,30.79257914871195,0.9366317183890093,3.264887459455021,0.8443776046504511,0.815397789368204,0.832859047125201,1.2837271399650698,23.575937344930892,189.09150342274955,34.98386107499021,136.61937102390476,70.76163224762064,555.9829217012319,5.067039182861382,21.40298662633651,6.4259321580384166,29.083071655291818,3.8643915629589873,7.206339436320356,0.9234455449373594,1.1636001710214618,0.7672541849022678,1.2388270763558547,0.785842589774104,1.570175026970593,21.24016377785277,240.65094248282605,24.80260254328829,29.53147962992984,43.178219608294214,159.30076778260647,4.692538064780747,19.967451778471126,6.36333773628363,26.813193988705056,3.7105465641994018,17.51776295307841,0.7677053110616009,1.0840204552583093,0.7084390877164356,0.8037494159876011,0.6862438613010502,0.628136373063852,14.568448315485941,169.10252649315575,18.13240953314542,143.22294196694617,38.85432136256829,165.6799356601744,5.468751711381036,22.843182676336806,7.099647868313267,55.3399244398087,3.7826424165322536,21.144856145567445,1.1872219868635518,1.6459978856014594,1.603832738356436,1.7447737641713714,0.8983567503585851,1.4484208675431682,20.949583172699146,253.74251571187324,12.751391434194241,35.14850180729282,24.296168718066227,175.03433962589338,963.0,7575.166666666667,4.0,0.0,6.0,0.0,2.0,0.0,1
40,8.869514716486291,147.60677702123118,8.566437891303899,143.30241552581305,11.371673271282765,81.07974621890209,1.4948911588496692,3.899725577344446,1.169789082535459,2.1259733917299877,1.247475694166303,2.4955976014143504,23.763557419131363,408.06798890718153,12.89591081801839,35.4744559090894,36.610294479567344,513.0418006734803,6.47954114106951,21.069166864049354,5.067256682314152,49.946885446430635,6.162121902250892,14.427741389908988,0.8512730179799325,1.0783590732591932,0.5253643321774149,0.30512023742762406,1.4388501158531792,2.778975040273323,25.529838543570914,289.3877383914705,43.226867956180506,287.2150994309473,25.978443859324504,285.5553438875026,5.978504542945157,53.97436366652935,5.236466919445971,49.56155360788879,8.981206061535103,27.979904887503405,1.6286154306625973,3.385925278606046,0.9968172493893529,1.8303847807983755,1.1649454233432506,2.288104648075147,20.277829555726527,330.5919807683461,55.24174853733608,136.2926397897302,71.11534363882882,697.9606144964569,4.979502444294749,26.521242076479382,4.84733501711916,19.532808185120768,6.881537918038543,14.276857638184152,1.2821846366643386,2.114962882786594,0.9226629622466244,0.770667725093374,1.042403338999144,0.9258727692463778,24.741571947585705,270.8305714171206,20.73426594369831,149.26001398041478,17.17521835601211,139.81115282309565,4.582319827250629,33.60712277774087,7.46312952014398,17.466170784968305,4.461728088845471,6.237690488806306,1.0528239116731697,1.2308793122473063,0.7538426678192236,0.5321919190687782,0.8477034897278944,0.7330453532342853,19.193665837132652,114.05802706638936,79.17191991457511,822.6703944830465,53.51605523701918,494.8765831941027,5.261072528489751,39.897281616591705,6.86677179750414,25.230160813829002,5.70490982983744,14.603373222100645,1.3513523464545953,1.628681231581493,1.0113826886073152,0.8585680242127709,0.8467663225990123,0.8192774754198802,23.183354134575474,142.71947787327366,36.581193923158104,231.10948328389156,39.135543626804285,367.5197578849467,7.478028964783464,45.599291608502384,6.821805612552304,21.538142634206274,4.961201719005292,16.515242061480606,1.1502566404178107,0.8985934539903178,1.6567834791931575,1.271662356747634,1.064208768970299,2.02973324652884,24.964299243153924,258.7487251959569,31.905530750404957,821.5534788615962,15.123556175044865,105.66720952172017,1123.0,7575.166666666667,9.0,0.0,5.0,0.0,2.0,0.0,1
41,5.637570559118327,18.252217800955243,4.559233901700456,42.32651401184434,5.120050373709949,45.64052063181355,0.8326362803202444,2.2602746589070075,0.854245780340235,1.0365150981197533,0.6921703594858971,0.7250790568834133,35.82445444062699,397.78225046761844,24.469627134427675,116.44815426905079,28.88416088828693,458.851036507155,6.073674354058663,14.720002286864132,5.4217285954848276,53.43833058087696,3.04939864195908,12.276178178941015,0.7693669688640367,1.231058832012052,0.30702474099089644,0.17196035218011188,1.1573058504091447,1.2608965193289443,30.91722075012435,459.70353410596726,31.36436575849191,153.42755583213645,10.432962675823326,14.006668700338118,5.3726569153244705,16.496897312787404,7.624991698667061,17.404497472427934,2.6793813542076124,13.792752381033774,0.5837345441054566,0.5910821988613635,0.5544484685189818,0.46131267026817785,1.0996544784106286,0.7307233648501823,27.549608011231864,139.94375786720474,103.70488918976135,187.6919052639719,38.2896525234083,56.76066031469013,5.492975315088375,19.160706049119636,7.8337099641512005,27.557398834991666,2.1957840407537947,13.196026787776109,0.6676790904117581,0.7748396876213655,0.5202273380017508,0.24289607324754603,1.2963390418102476,0.7658022362869642,26.59056536937473,134.55453786149442,42.25968497140067,164.7418750089272,46.83315837264457,27.51818102292545,5.804264098436779,21.97640131851818,0.9533357507057265,0.5236765550764632,6.909221642387665,21.39946856990488,0.30917259150469345,0.044307986137514584,0.9789955034036734,1.3793133272926716,0.17058388294218543,0.026624735004563527,26.74515080610383,278.7917748312648,41.32545865334546,54.48560105660824,42.60157674293581,620.7637199495823,5.546312201409245,30.85739830978827,0.8999141917002783,1.8322676668247786,7.242527853412882,16.008329740834807,0.20382017637018973,0.051483293036166694,0.8662303884837009,1.0112377129989145,0.13155189389889893,0.024439275701910075,25.16575768857303,117.463758676789,14.217438141966975,27.48988175416129,32.88644337381833,349.62998773987437,9.659911182965848,63.99782923824804,1.9513541069583722,3.5611194127896266,5.316697746143983,15.599537854860227,0.36542694012950055,0.14051303235548088,1.6658825368475032,2.250768446399375,0.3221544688196228,0.10237920645653126,31.07435964820195,159.86377240722544,25.567468405561986,105.63427488144553,26.72782156980315,71.21907548542633,1264.0,7575.166666666667,2.0,0.0,4.0,0.0,1.0,0.0,1
42,5.763196361569867,33.31214772477277,5.815042731307286,25.877919640930966,6.165742684248525,26.23471484697433,1.151191472020186,1.1335433860094657,0.5788509527991365,0.4007164103998834,1.4080370514598703,2.4844219011548536,28.132688541348987,245.47698615269067,25.31747058212163,126.20464060466921,28.677878684107448,441.97463747051177,9.467181702438383,45.806927451756586,4.448256315453058,47.108044362057704,6.233636968332866,25.07319093763525,0.9573927483046845,1.2166647211609163,0.5441748122816157,0.22889892931703087,1.4042515623945189,2.4155363617686016,29.794024745491257,353.2099201775451,34.96076663704805,210.27704011664693,28.3182085087133,86.8900437078623,5.472790446738864,29.286471510875423,4.293631623494455,24.003479293079895,6.822289422609258,45.00463656029227,1.1488484271610173,1.4242942773021054,0.781789134803423,0.8683693269992498,1.1807151407535588,1.3458793257612314,22.829123315522047,290.4221315608324,51.976272022209294,145.26894622488743,71.88366880448554,297.0707071608337,7.392173946200812,27.37730061291187,5.83333374969228,19.952790393975494,5.848787970383005,56.16575940811078,1.093707410325304,2.2451726116821606,0.5838318841773212,0.38057686662501794,1.3077203014724736,2.481871419040625,23.161304454196188,330.7186326893841,26.690406226896467,563.1955517762873,19.60756459260248,299.9166930380315,6.222566205797797,70.55861851562625,4.8252044957521,26.66179864486059,5.199971576289357,10.648194369716228,0.5229941816796299,0.24483830534368253,0.7837840815606926,0.8279383619494806,0.5407611963886805,0.3631975007611809,25.01757157284556,48.58960831523793,69.4223297347262,331.7421054760697,50.38086306613149,688.8848353322621,7.422512870869813,105.55001095656928,4.147952587940284,17.786498494485695,4.479027111585286,16.507659915442023,0.6770247138875762,0.3773291758789117,0.688034110541633,0.9308726241612071,0.7280018367631318,0.8072060249935361,27.079643879716976,117.39562657036765,28.396393145437653,88.35525585637397,34.83607740878465,275.8658652379261,8.823429423288452,78.34978338622469,4.604934187471384,34.94787538331012,4.8842799880625405,22.45036641163795,0.6940743511340015,0.8094920932666206,1.6861996970006399,1.3645939250138832,1.314112878083642,4.6847843840558285,32.90074381291668,149.26627929853777,21.131555193880466,213.03775828304225,18.328264894378542,55.67165097016238,1270.0,7575.166666666667,8.0,0.0,1.0,0.0,2.0,0.0,1
43,5.408026123036123,34.899120975287694,9.62625715173657,88.29860356514843,6.558707819682271,27.461524127938706,1.0986117946020362,1.3449841273299716,0.7175971871022246,0.8582260067096444,0.9062651671118032,1.4581479411354454,34.644294231833015,126.95053045826398,29.79421174852951,158.4204059546901,28.214920482861242,147.42269926253218,7.397229654312233,87.00230716884715,10.01599635208564,111.68007672725005,2.8755309489258623,17.641772521172275,1.1101824284575268,1.9164255193356319,0.6400989821726809,0.804424848947129,1.9908614525690589,5.041215385897436,25.236876697845734,414.5277413391459,32.999867585410314,133.72511095127408,8.740049363544019,48.52582350904735,4.074452447782323,15.641452896939072,9.033028361310198,41.6361982355469,4.033411135705206,24.867485143155434,1.012699547276733,1.0177311582888386,0.3545530394514082,0.14542122537179586,0.9323824063334861,1.0612654690641898,13.752260852144085,232.94794066000264,88.67880057654904,362.57161358769565,62.45083241763701,54.70005564909734,5.85667218495643,30.838391876426225,8.432217011073499,32.33929856583474,4.427124545980629,6.781369910920332,1.249404779155785,1.5835778839990373,0.6739625669195877,0.8145899622665191,1.3439332021870636,3.757568299218826,14.743108198622187,206.55797564253336,27.786642316369914,195.50743399132907,51.485228066428554,176.05428965905264,5.714518102699662,38.106317582801154,2.8858115062909664,11.780527964923067,7.69059998686874,17.32047502333468,0.5787612217790957,0.19573659604625987,0.8438034552821039,1.5270742145082392,0.19352995097657288,0.040288955771958485,28.45825188342123,39.59014240970296,43.957401300981594,35.60111800190971,21.447414734391913,820.2865573624324,5.020705221647836,52.8423926076808,2.050578156145803,11.435316443605524,8.300775891952712,20.65941173126407,0.4809288915445521,0.3059904037339672,0.8083066133182013,1.1691232994888237,0.27212574126015565,0.12137522504798452,17.954898615909176,183.3238457841187,12.735673708674124,37.17727794684714,18.738425928542384,137.89708855995113,7.970430900562444,79.14946520235819,2.32464830106839,11.714947891781634,7.281931969810562,20.450199948039188,0.44929833766196753,0.21373052938522202,1.4435672222936766,1.57808936928293,0.21204924954571747,0.14620782812367894,22.253154079383393,216.64807211611875,18.691313962603726,35.103247617516125,25.106328699972938,51.716034116810526,1286.0,7575.166666666667,7.0,0.0,1.0,0.0,2.0,0.0,1
44,9.712648956408334,128.57647527091666,9.56357350657103,137.63891191204573,8.663816844085325,90.73152713371194,1.6480628956431072,2.4813889922353147,1.2498186092447232,1.6125006895424578,1.5283896060292284,3.4451400603690763,21.02324106291778,307.12764377695703,33.719557061147846,409.9895456430598,26.575066108442225,390.4531969492401,7.94451777271747,83.90843227090683,7.233740436946633,88.9564611699937,6.228066924334414,38.34832620285715,1.9988453905500372,7.96104231485969,0.7584526203968396,0.6507504762792833,2.145440305142851,6.52505169465992,28.72995022384905,739.9965973138218,26.86290642638935,458.82737369178307,25.260943584267878,328.3742848468635,7.6875001779970935,89.25849265306294,6.498671394952285,61.39321886143097,6.807707028673882,36.537511044308275,1.723652517539449,4.781168440128985,1.0204420833486942,2.1495584531660166,1.6284139022004653,1.9382696533055401,30.655837493085386,186.80681045184087,49.300748526455955,554.5556555349287,55.403482494164145,765.0376646854841,7.632885402678032,81.33210231658629,5.610231881846745,33.605939558511594,5.4607047680455985,23.98955160335255,1.3988720927060372,1.5974993982685235,0.9220564381957775,0.7269215893690548,1.7430022599614934,2.478559382631579,22.92821527571043,239.92998529998528,29.398967446381864,265.388577339371,30.696910443100027,273.31962072989023,6.363860953834366,24.48430793074695,6.590637036961228,33.42179990918739,5.928100468971429,67.26909464366292,1.7543876801418599,3.9280267552655337,1.565049870134613,8.735099979066144,0.8098937196554956,0.8057395429801573,26.002676286397385,323.78660535626614,62.30553424873225,1027.1162197995045,50.96575671097765,434.7260427894786,5.7745918699376215,21.941987009565683,5.226426789545195,29.998662311323848,5.777377543482076,74.98850460156235,1.2916535373180669,0.8652534832626156,1.1721951688417045,0.9742183759368331,0.9312643547978661,0.8138891626378303,23.44424742777086,103.6231832684348,23.804500255399567,442.98534298838166,36.82290651458022,480.60141983052716,6.883199156914834,41.81782180204813,5.348871705498224,24.795807823960647,5.716431139547539,34.20781557343296,1.1341958627370852,1.3153522325633722,1.3068264995491212,1.7652513832097252,0.6527379775354856,0.6004987314105713,32.53623788142917,46.59885057420139,34.02936607539852,708.4747970934197,16.923573157344745,198.79377534096957,1151.0,7575.166666666667,4.0,0.0,2.0,0.0,2.0,0.0,1
45,10.746417882236532,15.08777481974488,3.1726489717239805,20.699086670934715,1.8238968327718839,3.400794423667566,0.5399547311495928,0.18996084393625437,0.1967697447669411,0.0477720841284153,1.075545449919095,1.7578280164229008,51.0241882793135,52.07045835681242,12.861888046676535,121.8091551070086,33.889641327715395,3.0948208401018658,10.22441967816844,19.58529131746833,3.5689576565414867,24.85751997932114,2.579417174502564,7.484461941557438,0.5425732368019338,0.3070340860753164,0.4077515106178436,0.1935367689605195,1.5149144103291887,2.2485141734942915,42.04126054503989,97.70263948072002,18.901092932915372,240.37810406136742,36.9625914183962,17.18826905223222,9.787055696759905,10.020998493770083,2.9139152141442626,12.815153661641403,1.8975422498445178,2.0120242160367936,0.5174912660269754,0.2232169473344703,0.26295792965629217,0.07983527181995358,0.43287067724553485,0.16548306797649584,37.863914223604425,7.470322641224743,48.397931121116464,41.65551190831187,15.604414489974214,6.26583563239292,9.709706225664513,13.199199882353224,3.068359907165764,9.175761500721,1.6781259962230723,1.5932480005204916,0.5226481459969872,0.17837008267886859,0.3349423255721893,0.04507764357197478,0.5509069529505125,0.3675924846687932,29.05008332515476,11.976548264622481,21.514054745138683,47.182286012563885,80.7582091017815,4.665938206807233,9.943136281745378,11.931720812082025,1.1917830829901552,0.9826423334681528,0.901453584719966,0.7956234215467449,0.32775791103725765,0.04361276236058974,0.27381170725920223,0.04487117259524641,0.2899797329635814,0.08621504528616755,32.28139292441333,9.524364825843556,3.7706571624156373,6.948022471042174,40.251464096018644,5.250479977100298,9.867773197021991,11.832040117227024,0.9425949088318669,0.7282631885281385,1.639350055293041,0.6549689962313022,0.20612884392874645,0.028051747274159454,0.2132535553234668,0.039437774547860925,0.14233230928083235,0.016729212135756726,26.921994510283106,19.5652052604513,17.563388319110555,16.005540956832096,15.387316150918751,15.548705559878615,8.874238339769484,6.738864181400461,1.101252392315742,0.43850116900534447,4.500718616378459,3.681579049237699,0.18127427579667976,0.01422990209371874,1.1983583741434587,0.2692097036123318,0.15620821262044565,0.02167730461248233,27.968623896373863,21.070181087342643,19.86369195808208,33.004899150359336,5.585320128740563,21.1623346193924,1990.0,7575.166666666667,6.0,0.0,2.0,0.0,3.0,0.0,0
46,9.341741897735089,0.07004559058270679,1.9476216370085149,0.29141651255054396,1.9631303840895429,1.1072811076986886,0.28522930197120705,0.02868043708485199,0.1133974354363749,0.011641061815744033,0.10850703629314218,0.008888682733709054,39.24086535887861,3.1042455940105294,6.160231427892894,4.780703237014239,3.3148836390396883,5.072371464396498,8.940430818602096,0.07641378770438534,2.7983024393601275,0.3402759812542166,2.9162507405708795,0.447267564148785,0.06470823582197792,0.002994320927092555,0.0915931361911902,0.0062729990804881695,0.1664675586505722,0.010646422602708178,3.119788257281398,3.0579280949798378,4.730737994960277,6.856527619308884,30.25725273436486,0.9955334336039544,4.034569147639511,14.212203407989296,7.131330818828951,7.813012570996114,2.420471184079433,1.140579733394389,0.22806606289042636,0.040884176514632685,0.18230707267413582,0.01971433882195271,0.5767595683000069,0.2355621126180441,20.950834400234033,139.83298253245292,83.52412461442408,337.5262294216609,62.796988401698115,7.413786516815641,4.359791789309082,14.384212577730052,6.5186200229036455,11.337350750003715,3.047525664896664,1.2649904868934074,0.33550499392330313,0.046975907564428196,0.23506820253680533,0.025767018054856147,0.5980377739811303,0.2861014322409264,26.30142163873907,211.82629098513007,51.67771976577285,931.8375669396156,45.51292739437268,133.32939836610575,5.004688318781678,6.001686974624863,0.4232968605418173,0.07747918941675375,7.888978297528238,4.997690015781263,0.24081673718133378,0.00789916895958314,1.2775984261543847,0.7093850968125822,0.19511680073420784,0.029589922882567805,23.40494063026287,107.56392089670523,60.61072405945027,4.306664472764846,87.16742166411441,91.59263817666707,7.893392239694183,2.3141790869205106,0.5401946621919144,0.11763733074424365,4.209585338335892,15.983775140725374,0.13899698361299587,0.011456510109111242,0.9707068104244323,0.31301736803026475,0.10817258485808134,0.006585257013276578,30.027490862976276,70.57271885347006,35.488406355594876,14.512261409101603,47.68350156993169,216.62816736881348,8.402958153886257,10.541263297193803,1.0614206708868674,0.4462536743813297,4.426597287698937,4.355494104256465,0.21242956195430415,0.02293726888778043,1.2283517428831603,0.5312907232783227,0.12355022957127702,0.016706525955794013,33.99426029370077,30.503787372304657,39.44507406874749,25.198075139549598,8.39642999274192,44.56233410188185,906.0,7575.166666666667,10.0,0.0,7.0,0.0,1.0,0.0,0
47,9.702201041668356,1.348570933331278E-4,0.12073506303502872,1.6595332630314113E-4,1.5391370149149848,1.9308952676355982E-4,0.2195948202942693,3.8343517583394855E-6,0.057811774016416746,2.1759985246515984E-5,0.012911607982417526,2.3970306064006627E-5,51.447401040416224,0.052262235352597435,12.711667780068229,0.06400716876917838,8.898890070740963,0.07303394319697049,9.663601260644652,2.0591437195423997E-4,0.7864082280385534,9.904509953382167E-4,1.0457810042704458,2.855555678798612E-4,0.03766923920062689,6.228797379399681E-5,0.010365823918951217,3.2904964505661545E-5,0.02148894350233169,5.3115634329006485E-5,46.1169576676581,0.08713248449641142,19.85969725954176,0.05372838712518521,0.72978476843676,0.06973052076221073,9.648223591801337,1.6207906475480962E-4,0.3174060432617847,9.27842277342961E-4,1.6154428067001394,2.617860927557779E-4,0.032356255753522745,7.454123400604604E-5,0.01459433888688535,2.957254660370465E-5,0.01927673421884064,2.2370650517867594E-4,41.73343470880756,0.4814289824492475,29.056221553257533,1.6178221156209165,54.16785724931381,0.7786486131307566,9.66267933639577,2.2403876064548347E-4,0.18627531232429898,0.0012003339415969125,0.9493181061903108,2.7362699199116376E-4,0.1973001396042168,5.892811029695637E-5,0.15743876701573598,3.4941835918378655E-5,0.016231561508177637,2.1849605598999103E-4,38.840602152371325,0.495058002979213,47.76060120845554,1.1947837086313198,40.303262526806805,0.6868102802531462,9.691664467618315,1.924045329141535E-4,0.24172368744679068,2.0608428544252944E-4,0.7184842664538031,0.0017079931742149826,0.17868743218060743,4.423130913132485E-5,0.09832968439077618,1.4408987814692271E-4,0.02105696013342725,2.6377430382283406E-4,37.74188119628501,0.48681740471776636,44.57066774843539,0.7402176802736965,62.1644221968033,0.5065060387056177,9.685703550066266,5.650209353110969E-4,0.9813904399887667,0.002111797617778419,0.3948964518665079,0.002943142957893148,0.17814664824856477,3.343890348459221E-4,0.20477193707841576,3.1051710047307627E-4,0.034966976742493765,4.632159457823571E-4,34.73504237558358,8.642149565258412,19.09590017439123,12.168201068302501,38.823353928981035,11.697678034549979,9.848856133876053,0.006373925455313445,0.46702739175569974,0.008779379603794385,0.6943528972986924,0.011471733255789346,0.14010257788769825,6.564850019435091E-4,1.1141651231189107,8.060495267191751E-4,0.027677079732587834,0.001132007382284822,38.998232464457665,10.68968028184821,26.404545064780404,19.54229325164832,32.63518012797714,11.348566461081857,275.0,7575.166666666667,1.0,0.0,6.0,0.0,3.0,0.0,0
