,mean_rankleAccelerationX,var_rankleAccelerationX,mean_rankleAccelerationY,var_rankleAccelerationY,mean_rankleAccelerationZ,var_rankleAccelerationZ,mean_rankleAngularVelocityX,var_rankleAngularVelocityX,mean_rankleAngularVelocityY,var_rankleAngularVelocityY,mean_rankleAngularVelocityZ,var_rankleAngularVelocityZ,mean_rankleMagneticFieldX,var_rankleMagneticFieldX,mean_rankleMagneticFieldY,var_rankleMagneticFieldY,mean_rankleMagneticFieldZ,var_rankleMagneticFieldZ,mean_lankleAccelerationX,var_lankleAccelerationX,mean_lankleAccelerationY,var_lankleAccelerationY,mean_lankleAccelerationZ,var_lankleAccelerationZ,mean_lankleAngularVelocityX,var_lankleAngularVelocityX,mean_lankleAngularVelocityY,var_lankleAngularVelocityY,mean_lankleAngularVelocityZ,var_lankleAngularVelocityZ,mean_lankleMagneticFieldX,var_lankleMagneticFieldX,mean_lankleMagneticFieldY,var_lankleMagneticFieldY,mean_lankleMagneticFieldZ,var_lankleMagneticFieldZ,mean_rthighAccelerationX,var_rthighAccelerationX,mean_rthighAccelerationY,var_rthighAccelerationY,mean_rthighAccelerationZ,var_rthighAccelerationZ,mean_rthighAngularVelocityX,var_rthighAngularVelocityX,mean_rthighAngularVelocityY,var_rthighAngularVelocityY,mean_rthighAngularVelocityZ,var_rthighAngularVelocityZ,mean_rthighMagneticFieldX,var_rthighMagneticFieldX,mean_rthighMagneticFieldY,var_rthighMagneticFieldY,mean_rthighMagneticFieldZ,var_rthighMagneticFieldZ,mean_lthighAccelerationX,var_lthighAccelerationX,mean_lthighAccelerationY,var_lthighAccelerationY,mean_lthighAccelerationZ,var_lthighAccelerationZ,mean_lthighAngularVelocityX,var_lthighAngularVelocityX,mean_lthighAngularVelocityY,var_lthighAngularVelocityY,mean_lthighAngularVelocityZ,var_lthighAngularVelocityZ,mean_lthighMagneticFieldX,var_lthighMagneticFieldX,mean_lthighMagneticFieldY,var_lthighMagneticFieldY,mean_lthighMagneticFieldZ,var_lthighMagneticFieldZ,mean_headAccelerationX,var_headAccelerationX,mean_headAccelerationY,var_headAccelerationY,mean_headAccelerationZ,var_headAccelerationZ,mean_headAngularVelocityX,var_headAngularVelocityX,mean_headAngularVelocityY,var_headAngularVelocityY,mean_headAngularVelocityZ,var_headAngularVelocityZ,mean_headMagneticFieldX,var_headMagneticFieldX,mean_headMagneticFieldY,var_headMagneticFieldY,mean_headMagneticFieldZ,var_headMagneticFieldZ,mean_sternumAccelerationX,var_sternumAccelerationX,mean_sternumAccelerationY,var_sternumAccelerationY,mean_sternumAccelerationZ,var_sternumAccelerationZ,mean_sternumAngularVelocityX,var_sternumAngularVelocityX,mean_sternumAngularVelocityY,var_sternumAngularVelocityY,mean_sternumAngularVelocityZ,var_sternumAngularVelocityZ,mean_sternumMagneticFieldX,var_sternumMagneticFieldX,mean_sternumMagneticFieldY,var_sternumMagneticFieldY,mean_sternumMagneticFieldZ,var_sternumMagneticFieldZ,mean_waistAccelerationX,var_waistAccelerationX,mean_waistAccelerationY,var_waistAccelerationY,mean_waistAccelerationZ,var_waistAccelerationZ,mean_waistAngularVelocityX,var_waistAngularVelocityX,mean_waistAngularVelocityY,var_waistAngularVelocityY,mean_waistAngularVelocityZ,var_waistAngularVelocityZ,mean_waistMagneticFieldX,var_waistMagneticFieldX,mean_waistMagneticFieldY,var_waistMagneticFieldY,mean_waistMagneticFieldZ,var_waistMagneticFieldZ,mean_id,var_id,mean_subject,var_subject,mean_category,var_category,mean_trial,var_trial,class_label
0,9.783972293014843,1.5912643412632318E-4,0.8398444083716364,0.011034638927860163,0.3858644277228359,9.111460536960842E-4,0.2533742037381498,0.00376785757669005,0.033018078821174086,1.1546577768715333E-4,0.023734045632065687,2.0067471099945308E-4,49.712530318137524,0.06220710141858708,14.969289779663086,0.2652984374049451,8.868716524844348,0.11428956261172009,9.80327924356421,8.233468413351059E-5,0.1219971701039071,0.0035992952260678096,0.3001024694610928,2.772338580853824E-4,0.06070367639490183,1.1542807771097712E-4,0.009171900401375917,6.475924564587965E-5,0.016314767599004396,1.052981263352431E-4,38.65384501540315,0.061783789997794644,33.55703774923111,0.09715513800100636,12.76743666858594,0.06563279003814469,9.621370394694855,5.65229002534717E-4,0.8957311926540992,0.015831288993440825,1.5396302874157537,0.0015043872415436302,0.06410471776343836,0.0011062147403350271,0.011640352736921843,3.674348008798914E-5,0.02764776340590141,4.088811902168267E-4,37.89416282305579,0.685101051378597,5.124561235370478,1.4546212377696994,44.39481007113002,0.8143687561959531,9.611163182871964,2.762296079500478E-4,0.10633158091519944,0.00717266207160629,1.2173372071808304,0.0015659708198725588,0.21428834433624852,3.6829391819515224E-4,0.21980586691268747,9.251542012448094E-5,0.0187740124258719,1.939235257131612E-4,34.65236723967113,0.5397226729983234,61.6485294801071,1.3156433482838732,40.10203732692354,0.5333707417105622,9.383574984380319,5.218365077860369E-4,0.8403480913629175,8.584526056694017E-4,2.3074595334618913,0.007051770352680787,0.22245700416228584,2.536176751358989E-4,0.11796619110891433,2.8874128279215977E-4,0.0182530083722547,1.9656772174356832E-4,31.03955251448382,0.3921676710192213,47.16047123952525,0.8795465106508991,69.77039134551876,0.4324081943105916,9.599698224997619,0.0020704596800341936,0.20836795869967378,0.0038447048458361403,1.3464786350974403,0.02529158682502611,0.07487967638219166,0.002532803225412292,0.19033217451755435,0.0010604320929688783,0.03689036097163064,5.932998461323869E-4,34.19678062818852,8.594304977126445,14.93266529563203,14.2994606383881,35.580828923902075,11.20673573732983,9.451087453058646,0.013558600954639512,0.7577659506621265,0.1403882161276796,2.5525725590242883,0.009494908599888264,0.30176060557118095,0.030905642283655485,1.1732207150874792,0.0023110197028849604,0.0847387716659109,0.010148479503825008,39.60462718979451,10.211236494450798,29.017206706446732,31.34210067463828,22.09753888078745,13.192585935361667,293.0,4860.166666666667,4.0,0.0,8.0,0.0,3.0,0.0,0
1,9.70441783414342,4.478215008273754E-5,0.22415370157150807,1.2003246319719579E-4,1.5232647429858006,1.0906772827901568E-4,0.24687246526919954,2.027531051330958E-5,0.02661680081217739,3.0489824026214805E-5,0.013208020754067682,2.0503891665529783E-5,45.573767017032104,0.04625044566168436,6.57337247088737,0.07486219974368992,7.392598051253196,0.07046836237472201,9.526122504744787,3.7038868728205576E-5,0.4883106509184936,4.029226912641753E-4,2.0006179577087466,1.1470681207795732E-4,0.025458078850756294,5.2993693565666195E-5,0.006302224075051794,1.4900738288984585E-5,0.02432854761875764,4.425824425738388E-5,35.708150333388716,0.06099594190876763,26.604548592785086,0.06486499596462596,5.104081769207206,0.06686448948836955,9.686323557651884,1.1811802633902625E-4,0.17300516960531845,5.182582874329781E-4,1.2386561246333776,1.685885366587798E-4,0.05629987138250062,7.016408402084605E-5,0.005324024893944243,1.8006338538380817E-5,0.021125091310033546,2.406584030848711E-4,39.62577560234861,0.5669135511461345,14.77436403219136,2.0126701366295796,43.815150296539684,0.6134850516581847,9.438137014871812,1.5398322521522546E-4,1.9917461728653967,6.050364558468544E-4,1.0093044581749626,2.915241755347213E-4,0.19912832400363512,7.239298655578353E-5,0.21412298373908917,6.467810006868413E-5,0.021076352655775538,2.0233332405076166E-4,36.757454124229085,0.5564946725468741,49.46803734807058,1.2454205074038356,37.64077556182735,0.6685654857410541,7.873068722451871,3.651036979533529E-4,0.14645377623837025,1.9415477762389826E-4,5.785232708167238,5.90379639523878E-4,0.22315766350114988,4.2387228123857694E-5,0.11679129052087973,8.30281803193151E-5,0.019438423332275197,2.2352312978914375E-4,17.49680893450852,0.38281037885454794,38.703970264102416,0.8771205098345553,83.86894229239942,0.4130407753543625,9.410864501573238,7.541986504687687E-4,0.056529485338456406,4.397608885455573E-4,2.2964943869974603,0.0020899691390544547,0.04031664731083157,2.0686735916368058E-4,0.20268062647447546,9.762828049226109E-5,0.03749226546108228,4.3360662163712704E-4,38.29845506027032,9.425874430534833,12.05914642504142,10.82514784130238,34.15964944135104,11.21193706468301,8.699409587749306,0.002359722514571948,0.8964764891323707,0.0014111816466356336,4.42025298597407,6.329345279911593E-4,0.16095290861683761,9.57521186148816E-5,1.1986488578725158,1.3012434116780136E-4,0.01779567630124893,1.9645662064847022E-4,39.276597683855115,11.092736305750348,8.759944461502474,13.933690139481207,16.286407486531743,11.510158633653237,864.0,4860.166666666667,9.0,0.0,8.0,0.0,3.0,0.0,0
2,9.841539620487522,21.114003513011458,4.163422977219478,13.530880894564739,2.752959400195149,4.5833734027935575,0.6813906756880852,0.2879320357774544,0.29388044061065804,0.061209094101401504,1.4276969113437405,1.1509798008874248,51.848729113820184,74.62968168396061,17.920229934990655,116.78454171290419,25.077904079959602,20.717457209631007,9.396218196052239,20.40663633541915,3.5542798234261883,13.39030294722851,2.713249327611039,2.760435036210288,0.6465070789512749,0.34707332572755,0.48793087514403327,0.11898039548143347,1.8816764318844095,1.4982095937278084,42.80519408704829,118.20908325384589,19.538748297330255,231.10473329737385,37.585110145980394,51.69369569228467,9.070140019491996,10.637014066628934,5.540313522350739,28.082014312789948,1.886688877743402,6.245652748140446,0.7265157819613505,0.39909123451875395,0.38558318743799114,0.079569659742715,0.7082170725904436,0.22092630841152996,31.308802181259725,31.191840053804277,70.3966778323858,111.14799843644046,33.85328907788542,13.999625336565517,9.705791370502647,21.14269164155207,3.381658694154247,22.425779296911504,1.8592819324221184,5.092556252371749,0.6428070666511926,0.4588137964073943,0.640137572679089,0.16063212114077396,0.6533408325080493,0.1789004489417975,29.189578756751857,3.8358398008153545,11.902149114062183,53.76170102702677,59.4265928941149,84.71657241132748,9.842963932955413,16.280422810333352,1.4035208675279998,2.014426371877427,1.1244242895815784,2.2875958024765004,0.28316143941891636,0.05222667513355104,0.3918397718204472,0.13417375315174354,0.2881821775325879,0.032321204804487906,44.3906679272157,11.344408595285675,17.503355331440684,48.50139544989827,34.060468610391574,19.885002443618085,9.915495639025423,11.347875879364901,0.9047662021502412,0.7408273530731269,0.8583068710962442,0.8544898888653686,0.3549263658914019,0.04712729837812881,0.2944747338388347,0.039915777660489024,0.1579260168340119,0.019531931435081792,37.20123812568633,16.157328433657327,11.151683581567898,25.091359474177263,15.85785731834,19.14242160190292,9.123274249159943,9.475224698556012,0.8429108860040725,0.23953105917772194,4.4667918721669935,2.4258680027291084,0.17252093832873444,0.017406705113655115,1.1591158009663658,0.12449845051293429,0.11561815309578831,0.008069558553528151,46.11284362033195,13.776058098402554,3.818207223571188,9.46458803103413,28.663190426173546,16.329185534154973,596.0,4860.166666666667,1.0,0.0,2.0,0.0,2.0,0.0,0
3,9.476753406999517,0.2860236593661338,1.4753774292805693,0.8978419535642311,2.1693880086169575,0.8041588099191278,0.2662722157059369,0.04223474055666668,0.23010222021897245,0.061663130406220186,0.3869539124594644,0.035424460572135476,31.89451573795303,11.39840108261456,7.608153620201523,1.3497197681269533,30.17024013313515,3.226851976747673,9.458248795315438,0.17312806042689924,1.9382894137078177,1.3252217732593439,1.4212093106258459,0.2677334433837695,0.23145696666445273,0.018768414702522652,0.11591431130925618,0.006267797279381647,0.40449139394331723,0.05503345590927036,10.304186209603463,30.01542927659805,6.3087009320120595,123.2891012266098,22.50420032892979,16.828222904162594,3.6020176619043984,8.648569140812679,8.378062087903379,6.52863460282264,0.7423641485127299,0.7273149119872144,0.3189332777727492,0.18513500839553013,0.1358673443448492,0.01806845007628217,0.8330796975294645,0.36021139875692687,20.61935715964721,83.26529725960955,94.92514592087615,453.8315609762566,54.52584381420088,17.609523334774273,3.55974687688841,8.049507041913392,8.320799131271974,5.856194088962772,1.859304377054158,0.9830655379829357,0.4585362783552503,0.10982614346810106,0.14443308289024662,0.012539628427158313,0.7816384860876701,0.2877619601558382,14.549613509342631,172.76982287881174,23.676099282577326,137.07672316398944,11.212394271231416,74.8103169707159,7.581318050004635,3.282945855582211,0.5543160129686783,0.19960252776776202,5.330319579335169,11.330290080275029,0.27284897864221147,0.05092652826349511,0.8905091921237821,0.30432849165743464,0.13553814108037154,0.01577719209113151,31.07490695462682,87.2203919071938,64.27730231067451,1.9729534204580417,70.59054513195244,218.3166866233956,8.883871197205856,2.335637127014735,0.3393844946160047,0.05545675552051279,3.8122398067174936,4.806271042865102,0.12090882973134888,0.00837766319504086,0.7400411744505414,0.2244019486431172,0.09232213266466308,0.005911394232758939,32.96813088729669,16.20211182525663,32.88211873952778,13.39767366531316,39.59896313995741,126.01267801171522,9.004096699948132,4.026313797822234,1.1669231676805718,1.8054808751424152,3.679766617406206,4.375348826325225,0.196681663740805,0.029855804052713358,0.938775069173039,0.26423889074851253,0.18742996615916105,0.023927071086481753,36.023257014167754,14.161136970213656,48.4550001215638,51.94509908670178,26.721170292850353,105.68290531424897,888.0,4860.166666666667,4.0,0.0,4.0,0.0,3.0,0.0,0
4,9.73950680506598,5.16124600088746E-4,0.11015115994071953,0.005585848810740634,1.2839063872996064,0.002932306374873122,0.21470114381350192,1.8973605232278242E-4,0.04080580409553824,1.6095401613144654E-4,0.023976231941991707,5.322248481852707E-5,59.37126515575291,0.07111460273094691,7.722214870846148,0.13169863253304162,0.6187343541388736,0.12194231766717885,9.641315774819285,7.78962860909419E-4,0.396779882615989,0.004044208158284512,1.567468841665799,0.005723636896961353,0.026205902040657616,9.567565727784136E-5,0.014936530903628644,8.685211465492123E-5,0.010476752580233523,7.766377588921906E-5,56.584913961666146,0.07064044271917716,15.25805227535287,0.16016436394119699,0.3327507169955631,0.049214861600043854,9.722582492631735,9.622900880139772E-4,0.9204851465741384,0.010754492993325303,0.3767897731710955,0.003133119726456942,0.029173087747677556,3.807148674400299E-4,0.036596067074551875,1.3446278039916317E-4,0.03341735046556143,5.770201073431976E-4,41.66186079044932,0.7047885583190665,4.431823283741155,1.2453597621369679,45.84356219498152,1.1505269269009148,9.583956094132256,0.001699163631794404,1.3759999090863257,0.01013991180808892,0.6626643556909463,0.004522200744212034,0.21852659756682583,7.234389256181314E-4,0.13681013932086758,9.214759928574441E-5,0.01848752065873753,2.864164824084914E-4,42.168348037090496,0.8231987001365259,49.627342597725466,1.658112238174941,27.805823709546907,0.8496510888174921,9.67352043230509,0.0015419473810701968,0.6093194518507141,0.001603607708603086,0.2414074230209454,0.008843478992704504,0.20538148959887395,1.9443387163963781E-4,0.12804017504005089,5.725240566738991E-4,0.02010172163376335,2.066328319447034E-4,38.30528916034502,0.38191424851877803,48.808801179079666,1.051470096202209,58.95493589971483,0.7986581081727911,9.723067357368077,0.0018318233183892583,0.21352746884924234,0.004963055360802516,0.36860397484960017,0.006423829823015286,0.12343758263999653,0.0011238925023008856,0.21073341223689698,5.065367660913044E-4,0.026215814455765176,3.582518071604459E-4,32.508082792931,8.523492401422736,16.5884227642079,11.909862419595543,42.904145004823036,13.179442039212912,9.708497784801365,0.024750684602038817,0.2295301747364328,0.02093891887635497,1.0220329356883873,0.8058662364739652,0.13106362871134403,7.165299735897156E-4,0.9669453351153541,0.018730547291237166,0.027820726772765786,4.220216741292812E-4,36.12149666265114,14.1223175296928,9.905238434211496,13.750509733507148,40.15814012350495,22.324680633156348,96.5,3152.5,3.0,0.0,6.0,0.0,3.0,0.0,0
5,9.856708036094162,28.161678401961023,5.272585920709344,48.79258405996109,2.502780706825554,2.6664441962787095,0.6828087057978208,0.2675806522826753,0.5059856670035273,0.23779971189202412,1.504942408477872,2.2693428574522474,16.57575696731504,120.035484659612,8.278736730465566,15.481090466110917,13.19630391215635,39.022355263348416,10.09087533336442,20.42617963773601,4.117614714149579,54.11455333002109,2.778884530209461,3.984866542361724,0.6419565864150071,0.42614099775769737,0.405639771675919,0.12718579133872007,1.279696569584684,1.827909818001864,20.359841837427922,21.356640698505725,11.799243600536679,42.26595096233878,14.875702103762212,24.19971625775248,9.97136622246865,8.107904006185668,2.185041167874747,5.5005901085529185,1.5241725358825091,1.696648253056673,0.7603932065858807,0.4784773988604257,0.34670187934208563,0.08133094812595908,1.4941506147465795,0.62520607703421,18.317470162735933,17.92741976120276,30.993026298111406,78.45707796683494,52.659612766439984,164.25469113662533,9.482354656789314,6.191453801406522,4.1422699001072845,5.577855190889718,2.204729927587806,1.2565696292612498,0.8033970135831201,0.5961192191194797,0.47920723352967703,0.06268149529130337,1.5942660814375305,0.588950091588363,12.788954082860986,22.913303171932515,28.35288690828189,58.48440366079099,35.33764358773766,197.24116020927664,9.527211490013787,2.810776237069357,1.1580561866949475,0.7168820186205253,1.3691173772022314,1.4591760303908745,0.2227961988694564,0.032914322700768966,0.2849184312003653,0.029922431980484616,0.3757008415959868,0.029700000569785223,18.63137641289422,5.148844383465533,52.75208554722956,70.33318411648565,47.72079635556803,63.17087707275257,9.562650767599399,3.4054472805493137,0.9378973393972975,0.5924625047329795,1.3161081466727207,0.736653486569592,0.22657142764081042,0.01643365603154279,0.2918105392776723,0.03077795169439018,0.14685657662069,0.0078063410375073085,18.631505245984343,11.69878548915753,25.57254674919413,23.936311561850562,36.76011649009103,38.27352590831958,9.399508879887119,3.465101203320732,1.2186223224589903,1.2945542689645364,2.3083769533149434,0.6111136627735383,0.20196510385038102,0.012897034357993014,1.1701940589920614,0.02807013530053515,0.18127518674770285,0.016810937336468126,26.38174151978552,16.16270788236137,31.823263097106175,30.57526733725332,24.78096048366974,53.02458412577376,1314.0,4860.166666666667,3.0,0.0,1.0,0.0,1.0,0.0,0
6,10.228721320752781,29.5098180820177,5.299789239841811,18.03098959806512,4.1936327064974055,9.298829267564109,0.7805747435354778,0.19989920135399283,0.5428467686577889,0.1501468088509679,1.9864043325989573,1.5739678382648201,29.97881722747043,74.95590070834758,17.625802108361018,121.20201008518899,6.9689016366277,16.8635887865759,10.604831747378366,34.548304072632995,5.0418602925170015,24.488336349655093,4.232070368911716,9.957925543320838,0.6819762233671292,0.3246390766830064,0.8939756341085332,0.39677435742764083,2.150022400678348,2.192463764468258,30.67487382097363,125.24247221316908,34.053993715784856,153.781978305127,19.763106802501618,199.54988137264192,9.021741385776473,11.221687269246491,4.762687013217893,11.161511299515274,2.867404111378915,3.7716993782573724,0.5829875327770393,0.16927595414432692,0.303481871765532,0.07239943175611689,1.0576482862084369,0.909822004591485,23.67872970232825,46.33023290690431,39.52628253604367,42.541859851281764,44.05250648245277,87.63004748761936,8.117322571544726,10.73355962195913,7.008569102085106,32.21740201552402,2.7480893891625477,4.816146736450933,0.7085094353052714,0.363335358727719,0.3847038097934666,0.0955326432263519,1.047851816109088,0.786860948246738,26.911723334759596,50.47378434658288,34.14400007714869,54.817874359772425,40.907893414319304,256.3424386620895,9.490168140142291,9.086328571349707,1.4289669386764285,0.9802497666409884,1.415599822460894,1.3852689804571363,0.35811105403803767,0.059289910793541546,0.31489209209074154,0.06297607012789667,0.24382513205238707,0.024705353336887847,21.420792282864266,11.491220507394909,37.53434202582015,64.05399275216612,50.57558227475748,1.6443324083362474,9.459698265518885,6.575837620239098,0.8771974934377086,0.3494533777181385,0.7314079213308757,0.4976046433015365,0.2730091126655355,0.03922238701161083,0.2964478327619314,0.04515836127802785,0.13377194579639853,0.012669994127352651,20.79661325399312,17.538355599678916,8.580316442578907,23.780302889868516,33.18658940327118,13.622892736006008,9.416764424549594,8.039624392964122,1.329094554953368,0.4577867688720151,1.290197781205981,0.6237864368940372,0.18500632310384707,0.01668328815842611,1.1156066805742588,0.10625054010171403,0.10400968019104721,0.00552270499532411,25.551027317759406,9.546873291384365,4.896083225175367,13.21657309400348,23.755941762963765,25.75261701897917,1403.0,4860.166666666667,8.0,0.0,2.0,0.0,3.0,0.0,0
7,10.660490873041736,29.497065912361332,2.8613433692202404,24.224247485885094,3.0943911265179946,3.3457693983119765,0.8508696744003028,0.47176838913453684,0.6672784422477901,0.3968621908030202,2.030098301895674,2.2433198332044078,41.942449910017466,99.02340146693288,25.65732036364029,164.37625787742067,7.197985968942835,9.788542032355064,10.974671262923119,30.55311976580514,4.038745785307881,46.852762746643734,2.9654774677580322,2.2880971671003327,0.8769725107349247,0.5096769889327454,0.6173746886858654,0.3141721085482904,2.4612248308678386,3.8154569260990536,40.09644032316089,92.99049272884645,30.87499357240576,250.05102332562703,5.800423406435494,15.897290348063603,10.254636354466196,9.558143073718472,2.881721555027353,15.250845070315306,1.836222280365612,3.6749926539054965,0.9196397199071326,0.5423865066026333,0.5130929878045306,0.17438404756639123,1.3361948744173613,0.5016024818123919,39.105055211490615,13.673976205159297,12.311353476586678,87.86386483233395,50.05786696311349,30.65449983809828,9.481409733720835,5.8517780771329075,4.488540079178002,25.76654730095419,2.573198176147532,7.21343999518478,0.8729826531762304,0.8132274963433084,0.4780566733063844,0.16527773052206654,1.317672668349025,0.3997456331098506,39.091718839906555,2.8102540697351914,42.24999557590089,113.4766462817945,42.263397288025665,17.457880325520524,9.633013812338168,4.558649809683837,1.931135937981636,2.199966806854223,1.6167187434447257,1.7740733351227351,0.562607881238228,0.10173049801851533,0.25678191700548364,0.04603451718542695,0.2971699383450721,0.04695636208033766,38.22478250843855,0.6939204725003393,41.05658459168747,5.298746838785025,53.65898004112402,1.0459667937137513,9.731737585977895,5.533472840959399,0.74536313346676,0.3900879150944112,0.8415817168050472,0.4964291152352134,0.3172402621760841,0.05042467925806802,0.2697972161299259,0.024458432549792755,0.09993046485582589,0.004606684009956328,31.319027619737806,11.255431994045818,15.596879276497235,20.1670363153011,41.951662609686004,11.242926479934065,9.390127116713781,2.4159085378745973,0.879692528350472,0.5685356413869419,2.390448760627711,0.625261853196946,0.20246940281211218,0.020516638345260643,1.188418959433607,0.09205779193691921,0.19768676347499212,0.014771652485862635,38.87802746879609,11.93454983024411,15.681498633875393,18.638926833845456,26.23241696021369,11.309868033004955,1119.0,4860.166666666667,3.0,0.0,5.0,0.0,1.0,0.0,0
8,9.355492765972723,0.11144254563065968,0.9960064413460721,0.43398407189849597,2.720324369387013,0.4451011733631575,0.28024816642905664,0.002172421809370738,0.09135470095286687,0.003326377586501299,0.13766926977559063,0.008369396996253794,54.77124240289585,4.628929447392334,6.851169666004873,26.342764270963563,9.277182425700778,12.742707811931087,9.488453196292102,0.03196347904382512,0.3596193739068134,0.09395255322175253,2.1352265984190946,0.0966777392574229,0.05524189629943663,0.0017644824025538459,0.03568166815212066,0.0010137038465514142,0.06253380904008472,0.0031340653275014124,53.914699981816085,0.3545511661491512,19.943350819631235,1.9383584775841394,4.942399021995513,1.6507991645327242,8.779510367460766,0.2674498567350919,3.7500182356206215,2.5559440169148155,1.1648264310913956,0.1503275239529748,0.14858944840725372,0.008461704584442514,0.05882109127140747,0.002256143377477223,0.29009969253648515,0.024973580422867837,44.39961149286927,1.0011251655194406,41.65887208202568,128.05577499852942,43.66647476576176,3.7573334799025653,8.098389144755004,0.5320752129149894,5.138723252719863,2.0055106207265516,0.746222506775772,0.10043230559957342,0.2490396635351834,0.02296915704002156,0.25389271801438074,0.0043177704344878505,0.2545487968757347,0.022720522131735147,41.7453944415967,2.383336576915244,21.161426833061757,105.80616178134873,35.16352108207481,1.3813077492698724,6.789787406171382,7.575717575816825,0.8909339596250739,0.5127270923737238,6.3940376602267825,4.4573724047243415,0.2004986674292013,0.019404215108219967,0.984749770767724,0.8320136372215018,0.23624112046105378,0.02360838109896775,44.16407952584419,406.29382189036517,47.55362505141136,41.45993463096449,67.20619152591436,351.2211828454814,3.852208972534675,11.964463701768207,3.30165703356637,3.8972453301832872,6.987023594221139,9.324973819401496,0.31605034115187114,0.019202548377338747,0.7112491474548718,0.2312855076430487,0.13714399970140448,0.007222793580467426,17.79027819064643,86.04319073327595,31.500721428898856,93.99510844259042,66.39039485187452,82.24957648317454,8.772367702974819,2.5949316997910903,1.5447212446991092,0.6913675462030314,4.127904473347937,2.664190468957765,0.33825174232022703,0.034673500920184515,0.6839453829558667,0.23816614100651703,0.2783737010443878,0.03764102191886192,31.078465707074557,75.14797530620157,23.763199643722707,180.70515647986403,39.37651117214029,292.2599753341583,1187.0,4860.166666666667,9.0,0.0,6.0,0.0,2.0,0.0,0
9,1.079167625688826,2.8640110065860975,8.973946496164155,5.871423223237114,3.4827062027409084,4.87928235419292,0.6994605369193653,0.5517213908485262,0.26154257567610045,0.12953803727218477,0.47609568485450116,0.5638525703612299,28.72707871084886,10.817419602675528,46.168592643815856,219.2790689106903,16.292777331538222,145.64297620596332,2.0191784054659214,5.55550403616301,8.87123484631297,13.31234484412242,2.823597066434819,1.2600255821483344,0.5261757667891341,0.371250358023315,0.185040078521996,0.04222645680978048,0.7593258401645634,1.4387646525759223,31.424250836194304,62.946586797011726,34.626473084123056,107.51534070050063,13.62095230384981,15.588270881676749,1.811548856249304,3.9528212133603278,8.699944215196792,6.155856354007623,1.9694532018692978,3.672861380817514,0.5678826209005061,0.27037451254784844,0.35991767184826723,0.21800469201984898,0.48338999959575263,0.38359646267086667,12.077305953779655,34.7941947057039,115.20498945307435,10.903583300058573,45.57149442300757,131.36161153370082,2.0284425276119062,5.372837773961303,9.061134352228947,7.032880171125442,1.8044832814793987,3.7335822612122103,0.5732361826595476,0.2981888439054122,0.3824924162098234,0.13245291150138608,0.3527825794161464,0.1592795388442873,12.774708204125963,24.865779445237454,26.76296690786528,13.83452354256488,40.11860071870796,187.61857921162854,1.0596880651314846,1.4953358660357332,1.9747997213836617,3.7166683499633635,9.187823699223056,1.368235776973125,0.3915384695531909,0.13420636473623584,0.45875844087923157,0.3228620048005827,0.11085354317804698,0.021616553840261992,20.834778251489663,34.46191918259959,48.818733104531695,159.76921680032427,8.030718046043424,16.943785772167285,2.2610100829255035,2.8302402203818753,2.5849675267965715,9.160933783658658,8.636456037952692,4.329977312819142,0.42767069338389996,0.23860421545555052,0.7247918115173277,0.42431952796655437,0.20221078954781965,0.11830286616270298,13.307240043623814,143.20756787804245,17.231219345603247,108.12428735194666,12.323805985238048,49.311638144193815,4.559424240837701,10.71434538982691,2.6365954465429873,6.2813255372933385,8.096725454747181,7.804814552640945,0.3818350661994263,0.10665109336874332,1.0166226357793535,0.17765775483341847,0.32428291683033095,0.16777563716259677,21.427424725902526,88.42384121366234,30.13802155221646,61.49721319257549,20.49267419715145,61.060396032099966,806.0,4860.166666666667,6.0,0.0,3.0,0.0,1.0,0.0,0
10,10.216852661299507,45.39930842082938,3.0315275742629875,26.564085498189595,2.6088113369520647,18.17768030899601,0.6538508712440628,0.29460394442445553,0.6385174169554375,0.2565921061787655,1.1750932425218035,0.9967421497026802,9.220948188013061,69.31026296634263,14.439449471371303,33.05432628548761,7.799594867031604,10.482912923848108,9.139677169064207,36.209575477631795,4.910461089438546,52.756642584565306,2.3981308088293956,9.701960453329423,0.5937260550403817,0.32835851120652587,0.4611217758465651,0.14055070559185456,1.3746321782230881,1.4763913624112346,15.268688463076517,9.140896633260123,12.418560588013582,95.59570024622714,17.42633714641278,32.345047093866,9.885666672124902,7.248311744059806,2.96857375795354,9.649208259641252,2.8148817024290316,7.443462294489206,0.4766404648215792,0.18785510085585994,0.4440803651039052,0.07760939860672562,1.3362109580413435,0.5218399861776413,21.30173987471711,35.226201729470056,24.306640698207364,112.61636777344519,61.622469526108866,56.30021558431243,8.868414040917678,16.593399550596757,4.106195829437729,21.90391981108902,1.9721082145835107,4.33999564021838,0.8805291809497161,0.5510573125975913,0.4092942062516347,0.2049329925183104,1.4870294699970927,0.4596864457958907,16.125501774158714,86.18184914724783,27.52570667504275,107.39737861114403,23.45037476947199,37.712160167903065,9.555145051964091,6.094635114820485,1.6110128205312084,1.3028626620190122,0.7607877753946459,0.41278912560540226,0.20126007928349235,0.03516004148360008,0.3696543987124532,0.08424944936723142,0.7376492697527223,0.22166785334124958,19.94122213941392,12.803613177457702,57.28022284923253,40.34258552389197,52.18257587480347,35.39080794978772,9.443031799743778,7.495438519719493,1.4807385149575127,0.7542400228665904,2.0002591193526116,2.3511384728514266,0.4212827055446448,0.07916330679346749,0.25923545973948336,0.053448339455131076,0.3445545355885974,0.060162960026044446,18.027239283090804,18.23544546975016,27.903720752826864,26.961577487161485,44.09649538697049,34.553365590622356,9.139954482866026,8.409065088858851,2.395781145349949,5.30430383224794,2.4778989059657355,3.0980198861155244,0.2887215642413705,0.0308125647534775,1.181930627565661,0.945998662816948,0.4611951997774147,0.08476319448974881,31.767592940587722,23.835560666191057,43.608308333084295,18.190062639702536,20.723279214004265,77.44038412982376,1663.0,4860.166666666667,5.0,0.0,1.0,0.0,1.0,0.0,0
11,11.273471531036979,16.878014358180916,4.619511638111068,26.503327544411395,2.3319142713825918,3.7912293731281768,0.6755882320886708,0.23907719088605275,0.370494523229603,0.04556500897528766,2.203664986202223,2.4667816979579262,19.81552071393278,65.3784928720411,5.4578632510796625,20.80733765827375,19.260785517108886,61.23805371998659,10.369406662293985,27.34077951484804,3.539318034359683,20.651381803523844,2.3622505028241343,4.647706728725576,0.5878578182817069,0.28668037952679204,0.37247905903254325,0.1309219583122825,2.2669997737748755,2.6796430780431963,13.380846800151208,54.78942027899134,13.8595974489861,88.16049502756573,11.272398494833238,12.34966955396671,9.026971508358525,10.273971161142462,4.144954725605324,10.91324949393252,2.1260810872825844,2.1742182311050553,0.6850403630888344,0.3068558353768065,0.32267428675851945,0.05856484173413495,0.5562230585078302,0.15362540971411107,14.889566441294564,4.653376102263051,54.22269531503258,85.7612989302174,44.92677161505608,192.54883402473413,9.204729986388653,14.600023747007977,4.492074999463632,19.611795429800374,1.7937003728466039,2.0866120595666446,0.7406451136252507,0.5203071093919658,0.4632009098314027,0.09430301547027352,1.0176941688039363,0.5058487955471024,11.956760101793218,4.3050963403761,23.909763522167918,174.449475076516,46.33099301919898,125.56746707937478,9.386234843384676,8.981039993810041,1.0069787355711783,0.7820396807477606,1.1775565828550298,1.1669045869300436,0.2579585893670893,0.031617920256645095,0.27779784160561405,0.0577086053041269,0.34076822059656153,0.07385680005170153,19.7955451427159,2.8928372189134977,34.53124620904566,71.4847311763683,38.83740200343468,58.83642672446617,9.324056645151986,11.236404746844654,0.9287088529488914,0.462820478223272,1.2536863369009308,0.8265073410322267,0.25839906494728293,0.0462312668031537,0.241583522350993,0.031777316866352406,0.13252370548507014,0.011280080577759154,19.981069841820176,13.526755002523,6.769742824106295,20.83921804512526,22.008881157364588,33.95088448341434,8.249403227414334,5.261120863082299,1.006136619487847,0.7701300197257132,4.543520076640909,3.1624658004661175,0.21583265566998414,0.026103170959653844,1.2793772895801117,0.11319400708901606,0.21696791663394924,0.02222225462994971,20.793139819782304,25.532221430896513,8.151519909516534,31.606898833768863,4.5205199844455075,10.81157909982793,1194.0,4860.166666666667,6.0,0.0,2.0,0.0,2.0,0.0,0
12,7.877556268589502,74.29048782649537,8.97999089841897,116.44191659263979,6.531037940647592,45.81466434982736,0.9903661792917192,1.1054867108650244,1.2927768066046272,1.425909523975759,2.4080806164770423,2.3409000015673835,29.61696018890721,343.3523135145213,34.204746730378304,263.61913009541763,25.39252159308596,47.68594360598281,7.170909883659256,31.099699841451187,7.2080399245332885,32.552759492364856,4.45770280153193,21.42244251123261,1.1807249486185534,1.3075694114343055,0.5590507548429937,0.26516733254658637,2.8457477472034665,6.341762353687923,28.286723779939518,118.3052555567879,33.35638538412595,139.240018905384,13.877028900094299,245.29802616609425,7.864042458947578,38.130772255483706,7.3072640972667955,74.72047640946924,3.0396040207532495,27.61428758488143,1.3440654993277523,1.7783728962465133,0.841499227877316,0.363162611833845,2.5035463221384697,2.481462958356587,42.74787536572619,382.98778578678133,73.15575243526474,1253.1969854894553,47.15952612057761,134.4944684318586,7.916398042217825,14.173849645511462,5.633066803108731,19.039623328048446,2.2099062808979153,6.665057041974522,0.9611507453994355,0.6300176784214742,0.5627244261520454,0.19347600232476314,2.1880719585062094,2.4481649672107673,47.21426777476715,350.47945335989095,24.355511941232127,117.63964182606425,45.93771094009589,213.74108004245016,5.554954935954034,46.23860603181085,2.094784302211896,5.373774421381131,8.06426431664316,15.760047232362691,0.5755340801064056,0.19670357383005913,1.6205147680791705,1.901013725154032,0.3850053529413533,0.1294705894532236,22.987075319088593,285.03708503168394,50.24097727542102,61.11359213910245,22.87924946478232,474.4345339223607,4.406510861768267,40.48542929279498,1.5793830295792814,1.9627432434653371,9.608691221760022,10.076586595281665,0.40391825858833985,0.11760993738878492,1.2985830946841868,2.050540855412299,0.2845067630625326,0.12790126341218835,23.170509348271793,87.20902098600233,15.163385783982969,20.076012909276628,19.677141243986075,321.0513336361661,8.96692779109933,58.085901677273895,3.2088947585702745,8.672309726811516,7.005863647428786,30.285246832699737,0.48616548284648675,0.08151104015477421,1.8642158524995027,0.9863560798031165,0.5532202905283553,0.21488912977022098,26.874905728452926,196.2350903710171,25.36640456504347,98.62429776489215,18.46461680865387,31.496095549632546,1226.0,4860.166666666667,3.0,0.0,6.0,0.0,3.0,0.0,1
13,7.717551109361698,60.336493414000614,5.590220638805869,69.9177044265694,6.831071879583337,76.55346279337853,0.8360995395472312,1.4972840771718139,1.9537600008519638,2.156324155288059,1.91026749145684,1.65097752680433,32.5276263123726,219.66526324707593,16.7548057081031,191.2282945501459,28.423536746828386,119.08687960307628,8.423116921389251,30.529452105076118,5.9528312836329285,35.66830575888114,3.0502053984127846,10.260649181628441,1.0749288980319662,0.6421284508896961,0.5036849759797337,0.2641650052165891,2.7123091819375382,2.3644400279823468,30.7537414401275,227.86839455187052,26.428847606993315,178.08695531651935,19.452712936520083,20.640413788018336,7.670465400728447,54.711569004487025,8.576221421175477,80.64514938367778,4.010501473152786,18.994446825156306,1.8971917574833177,3.1977507215275307,1.0852938700540773,0.790294836118235,2.1369653308123575,2.49313283955655,37.4515616605638,208.29644948345214,56.85247655923931,1374.935893508186,60.9878457097097,215.21503163602898,8.567524122128349,33.753263089652606,5.523063670743365,25.557561463077896,2.16472995696257,2.759448095352072,1.2573462368734953,1.2126269526438453,0.6164114645844581,0.23859772779900476,2.0532649148765687,2.6167613340893134,45.166063841818776,218.0905749987467,20.86783259213589,122.75063819207433,28.084328085555082,230.60360027042768,6.70478190963941,39.807183384266644,3.2874982530957366,10.407327785025014,7.83353200055566,18.146781066802326,0.6004618210901596,0.7830288501452263,1.6538043918891876,1.845474410037492,0.8352409235068454,0.8171791364373913,20.245338138316555,188.6129625227959,73.28087774252991,120.01868823598116,16.791527533741412,562.6198815705728,4.03611972377079,48.36598441953138,2.7310541903446004,6.420023109738553,9.635159430847622,7.140870910599756,0.5738078681713441,0.48574943922527125,1.2474132183063176,2.7144840649997724,0.44119784265571355,0.26867844103360955,20.91873763841712,80.01913260117652,30.994461281170985,22.70464715281572,19.48035423507087,542.9005831333819,8.850823561309284,55.52944899202739,3.091833450046515,8.023033001497817,7.716072034569944,13.770524236824004,0.5522008113528281,0.28041985763728233,1.6316144724513686,1.2435475976300374,0.7060436507995159,0.9115321151575415,25.16039225694055,135.55677798156364,22.14867204402987,67.00145509662487,22.734952819050594,89.69939096595661,1146.0,4860.166666666667,3.0,0.0,5.0,0.0,1.0,0.0,1
14,7.092935058894988,35.027180444284205,6.91429219260634,85.37228175980941,9.188076671475692,91.40292590612198,2.068906575078106,3.602975147537338,0.9572028008125881,0.7766684731842104,1.47466267571259,2.2919876397895025,40.80804129952712,27.579379168527748,21.38985585640822,183.49091692873986,33.400151816146504,345.3443663513113,8.283308622407963,76.3465018185092,5.9739791620725615,74.3594830467461,9.998107945739727,114.89026202030435,1.3716679350878749,4.263228408580637,1.0977550353880254,1.6460726246127566,1.5320705664455234,3.015945312606135,34.69778825435401,348.1178081174478,14.422603349715347,109.35215163402499,45.184821049702116,537.7342196838487,7.631046382864914,32.81418183411825,5.444746038524813,39.27204784985271,6.472027842403695,23.371116180484414,1.7152695636577997,2.4946541185417286,1.1344719216023684,1.6349724123171792,1.1868538570325122,1.0476745693464584,32.81607914366663,177.52520487288206,66.46397782954932,154.7492851022294,20.8800257570516,410.1006258515208,6.400173292618971,73.97292927141503,5.635072262122979,59.6415672019498,9.112970621910534,86.46678321865089,1.123852921850763,2.3514198291790396,0.9841283245069647,2.5730499672539886,1.3106098928396046,2.4788903296319362,15.228072856471746,185.28048951359605,13.18349770230871,82.1549798176459,82.4802706390001,415.51752943178815,4.792305229339918,15.79815510278196,7.266842717432351,35.00701093525613,4.189742013348336,26.53580078199116,1.5664708932341922,3.722896189269499,1.065923020303543,1.6353816193845152,0.608929730913142,0.8266179940604158,29.813040017092376,163.83667270040706,32.46519693682797,144.93808814636486,55.191351293033584,253.17998804738346,6.4611572401976805,60.948251890346434,6.331094072853443,28.194160452809133,4.616915826934981,48.70999614565827,1.3239766883980715,1.6171727222139827,1.201569867567681,1.793846242307501,0.7854545949535595,1.2098445975881837,26.198677320203345,104.82877282238837,19.394870229034503,83.94631790162073,40.831013853619204,276.4168488721267,7.710940425744072,54.30129006643867,5.594994330925566,14.27488278832074,3.6084573461106086,21.073452611817054,1.1029680271988496,0.9593402352953888,1.6916141655311545,1.815311301877195,0.6149370198971804,1.0856925426404813,34.98068906855286,25.123758181007528,15.649815865757555,81.75988786705703,15.939976926661132,75.35987295346165,1293.0,4860.166666666667,8.0,0.0,2.0,0.0,3.0,0.0,1
15,9.962647956838499,90.1616846309685,8.715468572636224,94.81284856334013,6.205954489765758,51.55050211757514,1.64160701635398,5.496341528918791,1.2685005486975676,1.1379072883755197,2.240296162839755,2.622806537067125,34.41627239686325,281.33721352308413,18.307752877898917,176.53899909426525,25.514379297054656,142.8284978141895,8.361649461337887,22.91147320051799,6.388054066704764,52.85200815228314,4.509951143962219,9.290255958385256,0.9611217750736833,0.7970161051468942,0.5505903910862908,0.22825226653050826,2.3172207398077327,2.2517754304531703,33.44254848534141,207.25639246359853,29.861334560075736,145.1916872244151,8.085227360276512,35.09433417010439,7.539720654642187,17.477409751560494,7.088226986840305,52.70151621671595,3.9664987280116613,36.23045482720659,1.5296851771099191,1.539845499402061,1.0218749299570067,0.8998064499515809,1.7553900552728054,1.5967564909375924,33.02366962422968,287.6576359091107,73.91012438698922,316.3264138470658,49.24618109232163,41.584940643880046,8.435916947780555,23.739064845136816,5.306003825383501,34.257236668442864,2.8798463909086847,4.777653908205219,1.2315204360056669,0.765775680474854,0.7922305939603148,0.3803730388923776,1.7940953212280089,2.239625762712646,42.37676755484209,208.72271028813236,20.979454943500613,228.03582737625763,46.084734849415376,53.926212119961484,7.2791352120674455,61.9240409422347,2.6253360277853317,8.586568404682977,5.700225997499781,16.03876184856657,0.7036497692086761,0.22145506319729397,1.116281489661945,1.1659027431608342,0.4647436564482934,0.21538145530457495,34.81264949339554,50.9762214249082,50.55175106159384,107.58062229396153,32.165289633810765,452.96384209105537,8.315511132547964,41.41357607018478,3.304315577025421,19.879059829641243,6.93399957857284,54.87411435916963,0.823836854669165,0.6101996436478505,1.203056451377625,1.5794811783031915,0.5130758739687131,0.26086126052689307,32.19521430320265,27.46221024754545,23.63723848271667,47.42403869628121,31.30019641342994,392.6115978915823,9.476106945255237,72.18842648991675,3.2340473736060544,9.171980955498908,6.219990520293658,27.701200240501457,0.4926479862707269,0.24969013151902492,1.5069328835620488,1.8642914914876472,0.6420353114292416,0.44304023357283795,39.17825305511348,20.667783129295675,20.6933248508026,46.70440713494375,19.104849344529057,132.55641459129717,1322.0,4860.166666666667,3.0,0.0,1.0,0.0,1.0,0.0,1
16,6.622272203324742,13.952503194429548,5.988165277168464,57.26349958809037,5.498139681657815,37.93751865580196,1.0014106377382488,1.4803693592964176,1.578453775668223,1.974110573987543,1.9455489121760046,1.4716083578517578,25.91059168576576,345.8163196633276,33.83227587611844,247.8103058683617,27.142255831061558,128.49015650848185,8.840261933096217,78.83018481859887,8.924643930292657,160.10198538116865,3.4681812620613552,17.108430823273064,1.0750342441209026,1.239128970532634,0.6321570629203747,0.432551223750073,2.573987742786439,2.8224451271649036,28.251137432963027,351.67242890370795,34.05420420946422,167.5521268887919,7.931015481959827,72.96421349478874,7.510792260645615,36.33400499076567,6.4385598399579775,72.4233131379893,4.010407163981827,28.67798007725809,1.5082804701828179,1.9693591096466032,1.1893445599971038,0.7646983088019195,2.2103720242428087,1.6444396061110498,40.320928506460426,367.22089470685825,71.78992163788728,1088.1064293081456,48.88830510214651,217.22894504362003,7.994542282449538,24.467383191665704,7.2253177162275275,88.21656528990484,2.4734411386343558,8.724862506582957,1.1781925399095994,1.1291529493292607,0.6214637907542659,0.4223948246651082,2.2341555691308717,2.6398430790996716,43.44494508880797,421.5293248789298,26.06260736601976,126.24933934852174,41.645557561850644,37.44674114285354,4.453229811722683,35.606092359419726,1.9456142875253846,4.106348532690708,8.867129760102612,12.597124667367122,0.6276561453652518,0.3046383454793482,1.6748903706405096,2.316768832413543,0.45809170494703344,0.2556390293424556,23.996702835272952,164.99072277726665,52.72811862739785,53.87421553933076,23.336476020422218,804.93696444969,3.560977726378691,22.085753207341725,1.702751684779083,5.444495660323108,10.269138463738054,16.789648656578937,0.32792282560202624,0.13799856423927295,1.3392798097193612,2.677948762696619,0.312577653161822,0.12715643576179553,24.169493492213523,76.9057010860294,16.787749276616267,21.339646281334314,20.45203784519335,536.0433971528466,8.558832867689338,53.914100562334255,3.6979265265955097,8.371526577554778,7.345935340136042,39.819563953922525,0.42947328965956366,0.08177016128678846,1.9705408968618796,1.0470805469804416,0.5661664944629019,0.3374615327790409,25.188043176880516,163.25444538731674,26.198764201516433,81.22138252225245,20.86025626011409,95.90177477797853,1309.0,4860.166666666667,3.0,0.0,4.0,0.0,3.0,0.0,1
17,7.468413435927442,52.191384130649034,9.521910179916507,76.2152131116127,4.8336467940159356,22.595563293110736,1.6825008372239056,2.213823166157897,0.8316947241193959,0.45637567846201893,1.6945005355246319,3.012779253011208,25.81978242080736,373.39784188750946,32.63044640502247,187.3249136495286,11.944661083808981,135.72206058914472,10.532583389168458,108.41559039118117,8.021288623561874,78.27262946270012,4.657563411410419,14.750162976277073,1.478291117995823,1.3274183411080955,1.0874018353550512,0.6940675441573834,1.7973429915104913,1.9533808005171749,26.120563855742517,621.814087133217,50.11390140343504,291.3601775917761,13.071442479383649,59.369781001455316,8.648669410504679,106.1953721071552,7.95384468660686,55.6221069769548,4.829133768719563,33.69596003023471,1.265895485785245,0.8169825460028098,0.959496328506727,0.5642783309059601,1.8007281229085448,2.2219634853509342,30.484694227638087,169.87391468639007,56.09778692106488,1288.3431052952415,39.71594770122861,177.3481006577873,8.605622991401686,100.28170159099223,7.828946707267855,126.1278373716274,5.764784727284213,57.09936454191521,1.6643082345971119,2.0867915040705762,0.8936650458514629,0.9919117017082167,1.326772184395212,1.6545858330413898,34.85670138592542,221.31520204530463,55.040429657425626,995.1544651461827,40.74281015831405,122.89436745055963,6.0080357650256255,41.65116558624615,2.9129612513927015,9.488566085498752,8.471708394695243,61.376760104396986,1.2676693000772743,1.683123534339448,1.2384452312427314,1.6984974790085872,0.6410585575129863,0.6122838005595062,20.30908682979489,161.54654056130633,22.42507460874146,97.77873052444514,83.55818209509631,152.8475572370288,5.4931266913610735,40.18751432785646,3.005014052521824,9.740081681016761,8.142407369285946,108.94281848168326,0.9922721228519787,1.157966437500146,1.2449943689461334,0.8304624266490735,0.42938814266522984,0.2890534532882171,22.25569365751694,161.40484805587076,6.7714267528009175,18.732021165869217,48.38185230033526,274.9905729689378,8.120256472301682,81.2543779334473,4.214086673446376,25.77026568929215,8.32164563557048,142.31028910689022,1.0001244937210765,1.7414237690011658,2.194717250517048,6.26880868995446,0.8063072945161325,0.5939837069370946,31.352230974252787,32.48553375408198,14.824901469670143,39.42785878306761,12.144096422059407,106.8582745829133,1442.0,4860.166666666667,10.0,0.0,2.0,0.0,1.0,0.0,1
18,5.796561411531696,14.238736286019487,7.000718030630305,63.25051126643794,3.925353458166679,38.85027235681818,1.7491206035068205,5.385069102605078,0.9416542349989947,0.3893367642695254,1.5453656947788978,1.8010027676710354,19.520982912158075,370.1570756544751,44.96721706944383,134.96527406723686,26.322831244884192,193.7056120546008,5.804399813111887,22.421340300498738,8.031119409755368,88.81538123741906,7.778158203416593,77.3725475201746,1.9059307232143596,3.6836619195380496,1.139739175212156,1.3189817723476018,1.2985907550785243,1.4813242811395084,26.219785421221086,115.09678600172737,37.0040653681854,163.05381673511565,25.22274177808979,636.4291599921245,5.837265984182289,13.228763504036436,7.037414732037491,82.90521528540667,2.8918826680290377,9.213433669640153,1.0466327287683734,0.6613522267662689,1.1020424388179022,0.784627048297443,1.7628950372616532,1.1794446005326915,26.86759969653925,257.1767698011911,98.62158459548634,255.72861952839898,32.37881939045126,106.72368112947377,7.222134238626824,29.69090801397366,6.969729011932473,81.0560252103765,5.854740838663212,96.64548024584649,1.4453825026313887,2.2212733238674196,1.2944718248740272,2.151524337224763,1.5943123277127491,1.5014369693692102,33.956675707304626,355.3061680926931,31.272885131468044,349.19000167675966,62.94724884666348,233.1502363154603,5.926236862788185,19.128149657918172,2.5937966629128546,13.854096201748899,7.215697570460466,18.514819704674597,0.9836450014456612,1.0776509921017075,1.3758759699043088,1.4669870374460674,0.6836854282035241,0.6085281449453873,25.408743706357924,329.13429438175336,31.02009280588617,80.67379734655354,21.56889179967251,194.29493846140633,5.367656670448938,26.481686535166276,2.7555160670004075,11.807346987739846,7.597765576519474,16.99093638293555,0.9290497335392781,1.0503106184703226,1.3488880200601372,1.8950434006831611,0.4744264685285096,0.2931537340313436,20.63792224469521,221.3729465662264,14.007897982999868,141.9211142504404,22.49252204812244,188.05538448379232,9.263778467249141,93.01154350712291,6.22371377780477,35.10526567306061,7.799199408669937,70.67248882445979,1.3017906550032037,2.432513102110445,2.1762642240715966,5.066680573629928,0.8504126268905804,0.923751072201851,21.82967749126719,87.55436324082439,32.22083936093754,840.6762959890104,27.888790202215006,68.92064233953501,1374.0,4860.166666666667,2.0,0.0,7.0,0.0,1.0,0.0,1
19,6.528510555750555,52.02753974908521,8.568399084198647,75.68680250603765,6.182982262053925,79.66079151335693,1.9369583057695652,4.448190399333972,0.8916792655178912,0.637752787019497,0.962666573782096,1.1579908070159664,26.474920818914516,78.4433613147077,53.3083021868314,132.33110920344845,22.362975717889324,192.89864807341993,7.701276415207373,67.2926221076231,6.527936508113912,25.07266392796033,6.542806843581659,30.305791274542454,1.4136968494220965,2.8575512607184335,0.9589964573762353,0.8548808499694076,1.324132543715119,1.3630653514008095,37.19833066552506,390.56540435865566,43.109214062883645,433.3805174854279,22.076922929339514,160.68070792901162,5.448597036926191,23.008244134505443,7.35268121238226,34.70696068984996,6.05356067906499,45.92801019061862,2.1287876230440417,10.753762732697759,0.6225782515137182,0.299027635812983,1.2079589865730758,1.4673698923518446,34.45170758275076,175.11674500401324,18.070435041955893,129.0811044041476,69.98091774461675,396.1624980084015,8.200689721651592,63.64677854163504,5.986557461877829,47.595867499365944,6.30629459119313,16.464590427278317,1.1915803974494579,1.7001611562205208,1.1599545209664712,2.0920759392656323,1.199054170578633,1.3536667897315942,29.81766422160928,37.86780235755385,20.184560533875747,63.62785075960944,31.682616555839157,456.38112374864943,4.793750043973883,20.7733991590105,4.370418780247577,19.608945759163085,8.937867212314082,21.654898857502623,1.4648232471566895,1.7922787712120287,1.8019702198709404,2.7604778748976435,0.7484148984858998,0.7858635332198439,21.79413522837811,247.70011440738,58.40731651654382,232.16625856027588,80.01006556942255,527.8209725321802,3.9677858249326836,18.728871359378477,2.4368994741573062,6.091984789122064,8.891344769645281,29.27782025163767,0.8438208181530824,0.6438355009403349,1.4921749872194132,1.790399364497855,0.3951289505517005,0.14417162077901324,22.825306947795188,94.70406257965489,17.93140166725855,54.3005080192348,50.792565710811694,575.3713035427834,6.667068150261595,25.42401217562771,7.082295874002316,27.562641910825917,5.497089333921146,29.17211114226414,0.9458111667700297,1.124739709994422,1.9053091598033163,3.739333167305855,0.6256277223723395,0.39953886951605605,30.13127816861101,42.24523359561691,50.398658463569106,544.3826386084513,19.279869028641475,99.29985711391076,1077.0,4860.166666666667,2.0,0.0,2.0,0.0,3.0,0.0,1
20,7.2231183139862365,32.80979076313627,8.805286013285524,123.73478760094524,9.010884036754424,45.913236046921405,1.5743327956874682,2.571836480548146,1.6291399701687805,0.9449979259427312,1.391882758674548,2.0617019968157995,32.14828412550119,341.28219984905263,13.529705164776303,155.57726505665153,38.972441796507084,409.0715120605158,9.242255601127674,101.57673029732396,7.24483701051406,105.53011331916187,9.464323485494278,98.80668586057241,1.72339357311064,5.268052954939369,0.9410065451431131,0.8289078914794429,1.7395740683548948,3.4055421409558093,31.251315748048523,488.17402853645825,25.538222040254546,356.9134951291636,39.24573079789544,557.8454166526245,6.94463228822311,25.240187992943717,6.107927690387638,36.645548810286805,7.326029923106872,38.6681401825132,1.8260273055030474,2.193504219407266,1.2283605494153882,0.7451452606614596,1.0397225862593078,0.5386029153769807,26.635858533672092,301.4339726280375,60.47714143966738,201.67409459468632,18.86942305029428,299.03027727581497,5.441498900357928,36.72674340555189,5.30123602138268,45.16722288467888,8.829238613425943,31.531412290547202,1.2900234267764814,2.4093210154696525,1.0948432123489462,3.258864215981242,0.9983037029872989,1.0590506178479349,19.72535438665587,350.7858965310764,9.213449101485466,33.41580295330201,76.54556440614566,537.2959454935419,4.529686784023937,15.52866031487538,7.770601781324727,64.21948077713355,4.025293279690881,12.005893074667153,1.2274299359095913,1.438967471854853,0.8771137282913125,0.5377906100581568,1.0076559691483886,1.4031473355649093,29.221575942771562,235.950555089146,24.99257381810687,179.92614858259765,52.71273407995454,189.42484845704314,5.0923896107467135,24.19349807249747,7.475206093277195,57.25117100148906,3.946126710700791,16.232021760839643,0.8439747645665555,0.891456165463966,1.0936026409214277,1.477702362453376,0.7186934982824499,1.5286826682163064,21.6244355111665,274.4091874475288,19.890280495046085,88.42312642064931,32.78252487855333,154.64453316528727,6.814083863981068,53.15893597408774,7.496167914471415,57.637292632266345,3.5300290479645504,28.999465270722318,1.297183608164802,2.004131002013323,1.8742870292259202,3.710788043606947,1.1151695011714493,3.1019424916032317,24.55491301095832,121.73499210997242,26.68357700029102,87.25173629188491,16.323394807604338,50.1176002192867,1202.0,4860.166666666667,6.0,0.0,2.0,0.0,2.0,0.0,1
21,6.914335249393746,37.52271497083635,5.350011707573387,33.82462901855838,7.249334313738627,28.371384637633764,1.115938695680922,1.2703474356063296,1.2796719510938357,1.3104122976825314,1.0774320194110538,1.1125838046875787,26.6022400916612,447.01130154476766,9.687523801729887,28.303245584904005,35.447879308486876,247.0833909975509,9.637633075203391,66.36496450144425,7.666888550078474,95.99800934471041,6.711972375914331,74.76595918291859,1.829669137218681,6.803650962876078,1.0925870313023167,2.5703496075049643,1.658537167858688,2.3485000872407427,43.48261720807721,175.81468486252425,22.079824971769362,248.67013404224357,13.921953679120392,74.02591988966869,6.486610246397153,21.583391360319318,6.257709925074548,32.61119858698926,5.458168824493143,55.33819588989316,1.1632582427795177,1.4205021712155532,0.6239660921703668,0.306933291366392,1.4832801641935012,1.3957695644636985,26.678418016038002,159.0352192852575,70.2788022148164,156.61190074352086,68.29132939572156,131.6762302240492,9.176825937950264,40.80177020712324,6.072633308568134,59.090721666577814,3.192058540567663,14.50818254104065,1.1653318380757285,2.1885548906599936,0.8223768975740275,0.8693176697628668,1.8517261151981799,4.353312569276819,37.75716852053567,155.57223848500388,25.42092610481369,511.2145783654627,42.81616928369672,164.4521525615925,6.01464961701038,32.48297613842194,3.851758180255712,42.58812655317394,7.1119448828329315,61.475681499808196,0.8519527159729795,0.4441099090735295,1.368370288024614,3.7094996557765065,0.45560200447245613,0.15731746352939566,20.581741502836994,280.7678017231967,53.823486438925336,133.3910441086224,28.495034953246968,512.765507313707,7.186292507233585,94.92404341754103,3.8832598568802057,39.39413538450944,6.7550892311445905,33.6030078817839,0.6166409120713341,0.30656099298394535,1.1453800639949152,2.544254137744162,0.7609332923261171,0.7344779811117687,23.270055433897557,242.59853583161672,20.17750208654839,99.22289313668944,19.771291672194153,90.8247321595725,10.499554313286458,48.79941590133807,5.762777773702045,56.82038591918902,5.841753346482253,22.53037813570294,0.8587807042300083,0.4537038792443881,1.54284928313213,1.3420583692372512,1.1489780180371671,2.9882984410272604,32.27200681802766,151.5625391929431,35.16797371227217,109.85373353760652,17.30928247474536,54.03410235930185,1380.0,4860.166666666667,5.0,0.0,1.0,0.0,1.0,0.0,1
22,4.430993288052094,15.51977399762262,6.712035243484459,21.803154788647216,6.695154718235444,29.4248318013729,1.3264767372965256,2.0199050272098735,0.860654957400233,0.6744010700057093,2.193537677849326,3.0727220887091153,15.336360800346645,139.77323531386494,28.737216799091005,150.97669260414116,23.220778447046442,242.59859622726884,4.8721130170793705,13.330086725403097,8.710109781612994,25.947867677357994,4.55843816197543,20.221742514655585,1.4951685306541738,1.8419483587185643,0.9510401955668533,0.9612272976434469,2.014103291769748,4.02627721347424,20.55285726394891,111.60185541288395,47.84426300555344,96.47907342003158,18.691019229838215,147.9110832026834,4.040656531620886,17.291667469844395,4.724667669161845,17.941669691941936,6.76336603557606,26.854028979404895,1.3180661148727868,5.2704011698177595,0.5754663754675801,0.5287633576421747,0.8901579924724154,1.2403113570783202,18.25734009188735,271.0331421714682,57.43177236659893,111.09759991584649,61.165824019562656,236.43678381851814,7.424082707258181,17.41920915148148,6.799169076367038,18.60559978837732,4.842843700202251,16.155309579644733,1.5898323927028297,2.0881094785490273,0.7921763890933948,0.8664770296732641,1.0939573178268753,1.0987709805827854,24.642475015827728,123.96794859862902,24.778317301105165,314.2267797522643,10.876643447831459,76.08754687888914,4.68094263615906,21.180441499604022,6.416617706745546,48.57600553834082,4.683995490994196,8.087645103177184,1.3995314855592256,1.6246689717203007,0.9538076817912061,0.7033653387586416,0.3740277372598184,0.35695896378684505,18.034540346294207,310.4714952849036,77.64141546542218,274.8579606363928,34.66477839976425,333.08817161930506,3.6350311021092523,11.76148632608511,7.78375752002225,67.20288455730118,5.126846669325837,7.486245487747381,1.1790133400228942,1.2034498564504932,1.043735436440631,1.3701845805665118,0.39304088425049494,0.31842668635597354,17.271237043424264,201.6565744300543,41.68068411340357,332.6745257097661,24.187994596869125,271.2484781010034,6.114994932012439,40.43519221397185,8.282033270016251,51.6048509404919,4.043629499160032,16.085273491451257,1.275306164422285,2.373597957200042,1.404625498160287,0.9595968645677218,0.9267158937250183,1.4179997483648632,20.73566831246451,115.10339203718813,49.6278566344645,962.0521170031878,14.62609448152521,72.95237306777811,1139.0,4860.166666666667,9.0,0.0,6.0,0.0,2.0,0.0,1
23,8.414339078512986,68.63139918652153,8.044238461231759,58.82872980833471,11.67670488206059,115.77652652000471,1.7811296474520906,2.5553648381640963,1.5771800177712845,1.8538418356172417,1.7215494662175472,1.3942435935933082,24.25253458704444,238.93544082361868,13.698808276739852,60.11440231462982,36.89790627632399,100.76548793221733,8.812908888203227,25.487042967806477,6.052529943372699,54.24692388825844,8.011852423816965,66.48840025376614,1.8558930944268788,3.997078849053311,1.4523129437072395,1.1208771132414201,1.7838430597582233,2.286134243592723,23.829388547487774,302.47738876407766,33.36102902345143,265.54970231297864,33.87379435558042,233.0424188639242,5.80071355033805,48.51864185768191,5.560146819877427,46.1951904782127,9.305977987940906,54.8478944170922,1.3467169865305029,2.352017425976464,1.5958695896124444,3.174552132173001,1.1998948763893662,1.2592900656762098,24.717549318099913,140.01617550802288,45.640350523826,212.3722580472833,82.58570075134024,317.0950856011065,8.614216005839253,37.87977077758381,5.0945319186903815,23.434761180101003,6.440325021469401,37.09684047005233,1.8088189899357214,2.547850654372828,1.7509158218039889,1.673984159841297,1.269346231766648,1.1360214748412985,26.666809119454186,147.90185534108042,54.944957107923834,329.77151640849087,21.076062894770217,352.1889305444754,5.03428915214891,28.226049426475303,7.269609534335748,29.40458897617672,3.98847579262828,19.15896678511142,1.3698538072326094,2.216227688137373,1.0888738808631742,2.8958827014969684,0.9443127604943402,0.967750477810371,30.00211794866071,59.81563293142758,81.08170176145941,468.00693666202744,56.340101772324175,180.91955898779668,4.688229505722392,12.647250460700842,6.799797162289936,38.35044081620971,5.267898357229856,47.53454855491044,1.2298161431140346,3.3677139642937473,0.8529827103474761,0.9952896765652495,0.5742229842496321,0.47888197729117793,17.944735554738656,129.99751349964885,35.96634015799558,504.9786160200629,54.75220258404111,54.66386894049776,7.568474312975647,59.30196009946408,6.333107683078204,48.45471321425937,3.552566094308535,24.051230509498446,1.0909130795002835,3.2700107647757917,1.6754296576426484,1.1123071741507151,1.2070409832560918,3.4899730755298966,22.56963353260919,271.07567896022977,47.33916688410573,1101.490181803183,30.508027963123876,44.58948710880075,1110.0,4860.166666666667,6.0,0.0,3.0,0.0,1.0,0.0,1
24,9.491620892805678,0.46437168164999343,1.4394351185369016,0.8712963533136449,2.148685673757986,1.079202118026877,0.4167745977300084,0.19454911948452314,0.133750083269619,0.010829084322577518,0.21021176358956373,0.02734121587490893,43.454885332416204,1.5821772590562289,19.966935842363664,21.805815961526953,19.00824470045161,5.597663649147549,9.532547742994,1.5851680314560466,1.739926387658304,1.5901552390785842,1.9721685925274468,1.0880055724299291,0.2792588092900689,0.047343723809967514,0.19630239431889288,0.02067111063724321,0.21041715304300584,0.02941611173176604,13.394660911433924,60.61656796102547,44.8135981421253,27.68253807173307,13.428809879726394,22.1693244961392,4.267156073166622,9.767795488394123,7.719811304476251,7.797046457277238,1.4544688513834818,0.8018391497957449,0.3118059285491303,0.04636763742996987,0.20975213242971041,0.03936707903505479,0.7875859922211602,0.3593559099229719,15.667802358123462,241.973359550634,91.77956706953246,595.4264016041344,50.12984696067715,50.31513194013157,3.213997439330606,7.592855216480038,8.593915517894064,5.4016123533140075,2.0862019906608826,1.3984359776021758,0.4521617504209666,0.10750109518009159,0.3119321336807428,0.05072701263832083,0.7667946560816506,0.3437869901018373,14.988896123477533,142.6409345583892,67.10788040679273,1987.762720892043,42.953934174850275,136.7776312681991,8.737888993069344,5.856160108540393,0.5883299796339665,0.24243161877086997,4.1715070158861485,2.623125076230373,0.24353732345277962,0.037513758121895564,0.7963686228200361,0.49727567952820984,0.13066814953791697,0.010651198269346315,38.57733059325159,8.724612395422012,66.56695716509681,3.223246485036178,41.08429807053562,380.4675873896146,7.957806875102253,4.837498964190674,0.5926943349753161,0.2564134102584449,4.802442178897235,13.159753989062152,0.22748392105732437,0.02001889505294941,0.7936580875478839,0.2575174317977113,0.1154478631984429,0.006189353058927057,27.205342708286903,60.348248571873164,36.17456526380357,13.841454761593875,48.80782926725649,200.2384538678595,7.374174228842327,2.5196256107106216,1.6248370636161804,1.4888803444527594,6.751878298602658,5.339032027077242,0.25501839399697157,0.050377682431683744,0.852497506011432,0.3054393710644956,0.2700817257035968,0.07085549515637792,27.537814638921333,34.09139594755762,33.63894924781135,48.42027432389276,35.02578948821517,514.0987281319898,1011.0,4860.166666666667,3.0,0.0,4.0,0.0,3.0,0.0,0
25,11.009532439541767,38.387645091310326,4.169776699552119,22.916913669115164,1.9917352269939823,6.439707977942705,0.5503941906028702,0.16106599930732493,0.2837577220198302,0.0736664480823383,2.098155871651974,1.690104409534393,53.457660065646984,97.17132118827627,15.50803117970337,99.66463242288688,31.200804257293953,54.25327100395225,10.351663319030738,35.76555827975332,5.898515443182338,26.91264414480652,3.1059944881783235,13.166054204769544,0.6176289834982533,0.3295739441728973,0.49400463010883927,0.17744388776197656,1.8292146417200257,2.1059171985656464,56.19546124153612,93.97763143205788,31.508391965845313,192.80790647982298,35.92976527392122,31.540350037467697,9.270722696333506,35.822109318534594,4.602628202745652,37.76763047110758,2.989924079062286,12.103779536511023,1.0039897311485615,0.68934043964868,0.3385363731095403,0.19082497477051139,0.9456382727644627,0.694721559369072,31.65255328134877,19.769800957916445,61.6429803935324,166.7773373836844,36.35401194718863,8.726258168625456,9.070814577375705,29.217926711084523,5.792054116092158,47.65354719511342,3.0968317113685346,9.959473910132454,1.315549219107831,1.1220260132780575,0.3579883258934693,0.13620441489932805,0.8969840107763889,0.5221893682061078,25.1486844620764,20.571186362582,15.108238324090157,80.67293053989285,70.679090476135,16.899248593015724,8.052546454663098,21.545243105099644,1.3289776111477638,1.8234990783548992,5.144126233223563,9.654539304425255,0.5995322728000149,0.44322887324238613,0.4870684185887482,0.25006805019856565,0.29942421960891746,0.08157585387219196,36.63931005327533,1.0736618199095873,9.616019818607208,28.518227421269646,57.54563088634697,24.84018451207479,9.51800814703787,18.582897976406272,1.109276468483963,1.0769987041854185,0.9582050421470351,1.3246350894607797,0.33994756035479673,0.10515776221129482,0.3120501581050506,0.18308606442053738,0.1505483855334926,0.017367275901996476,36.92437433108255,14.991540447717567,7.201227778159237,13.009146401392302,14.239010294443345,13.824593910204875,8.893605012122032,12.429571047897104,1.2592651949561668,1.0997744939133896,2.8671364996097286,6.889909137430718,0.2640711279534996,0.025512211147855592,1.1214685549097778,0.30771865788928904,0.1133468842453418,0.008684406404845359,37.97338932876271,26.539455234240034,7.704071591627549,18.78199430891389,5.344531726179049,12.604572036840219,702.0,4860.166666666667,10.0,0.0,2.0,0.0,1.0,0.0,0
26,9.267531948960174,0.1546390101441711,0.9413212727237478,0.4569703724425404,3.0855157152745734,0.4064634617694794,0.2367679788885615,0.017749245049213897,0.10254352718760275,0.008585356756668154,0.10566265531912199,0.006612381338769539,31.282599516429347,11.280973506753336,5.861467656258231,0.5722664213572591,30.55031871399939,0.38253719294665434,9.40967568322336,0.537557195160515,1.4227701987869772,0.5197534817860796,2.089220330675608,0.6270632411849579,0.12369315780813253,0.009450373305740932,0.12521999559973374,0.026785572884968092,0.07707364748422374,0.007069714216491602,5.504868349222721,14.799909056517622,8.728153034859178,6.542423703657099,36.582087014226005,2.7880222972753015,4.375810038499318,9.455009550389338,7.769546259488307,5.1812054584791385,1.424285827034551,0.43608952530227363,0.3124542901545079,0.18431309141708138,0.18798559391388042,0.04378344302308312,0.6497440578578295,0.2640859780883764,17.230896941173622,110.3280547203491,110.16181983789468,335.9954176174268,47.39240087612041,76.64954849033978,3.019495060559192,5.570984634457949,8.95024762806556,2.160026564204675,1.1910508618906481,0.6140975618535277,0.4737301044923512,0.3084868431147454,0.22657895059236885,0.014500506687980934,0.5856094441050084,0.24313796989477293,17.612501087463247,66.00107088469272,83.93762032125007,638.7343312188463,28.800592183077484,68.85582265802478,7.004939887533544,4.1515293068169745,0.3878304529428824,0.11572643858516486,5.866076248562682,9.84312130473623,0.18613871401156534,0.008099305638177273,0.9889650016296577,0.2562743487048285,0.05307086708803789,0.0024177742867694443,26.597919206896265,162.82820506115885,71.41326182511833,2.7631074411203587,76.41100577200102,233.056974440889,7.682962008037014,2.630849002999389,0.5128945214635232,0.191259985920002,5.065400461395777,12.933166963597444,0.14235295860205016,0.00906042802330232,1.0709070337905366,0.20431031747038314,0.09738627409344824,0.0062385562887745565,27.910111614282695,88.42516290943807,32.39682355065563,16.04211246168402,51.63401268132,148.06256963949025,8.001654452802729,0.5175833244830481,2.0557073809793875,1.2739027390925075,5.337094170528298,13.37537694717568,0.25259442735246973,0.01743997521733244,1.5792687184899983,0.8896529632763619,0.2570504475949154,0.02556824162103804,29.397393618381866,40.051325345108914,58.51567612644053,34.64751695400673,24.00400923847905,249.9637017093369,897.0,4860.166666666667,2.0,0.0,7.0,0.0,1.0,0.0,0
27,10.0812855654114,13.551088165304575,4.142966391943797,10.931768215230754,3.3678161422277633,3.5445321482436927,0.8864750463420842,0.5633991309748553,0.3472810949363622,0.0987832262634933,1.9805189618151016,2.781901285112523,59.59208163186228,87.95658772330628,18.18424337649432,129.1572788938724,18.774961649629585,16.76269466625488,9.893322913973163,17.5915987418585,3.260132844378221,16.446783168133393,4.085856154530127,5.432268636144524,0.7413747959047617,0.48190848693103233,0.4634925593782402,0.20668036527565103,1.6354650072038515,2.254996590833424,25.72157919184301,128.78694590634282,18.675976839921287,204.95224187011127,42.68698936873947,41.524074065603635,9.897589521289367,6.282340285531967,2.448823449711984,4.711880719886911,1.5959717906708153,1.7428643982108751,0.6859793489899378,0.6464543289582813,0.5131344516564517,0.10274109234929976,0.569995336795875,0.25128979197055484,37.68097421638204,20.3697800823981,30.05455697720476,21.03329929362895,8.239430519168678,47.63597443451571,9.473283132576844,6.47655635709907,4.312959546741114,12.557343710961636,1.3141187178627955,1.7807149505961133,0.5512840665371594,0.29542009128872443,0.3242704488179565,0.07405748495472565,0.6346606936960779,0.32992294716430076,30.370790378681356,7.585807031084687,10.07602523032313,16.495235590303896,81.13894745126305,14.293639789972152,9.510213157448037,5.941283928788407,0.9545459685500816,0.6281738850387738,3.1634731176483184,2.527135865065378,0.24090109530766785,0.03923317428186941,0.27309531537638165,0.03601806386843714,0.17439575059676574,0.017319505268022197,31.33098751083944,3.699054855173544,2.495393225977282,2.7286807133430258,52.95698542614696,10.366575836946119,9.81757499766053,5.17095704899299,0.8763196322896916,0.3152580567467609,1.9692106248030277,1.2065709497257164,0.24583550203829246,0.024128413936477487,0.2996207520107766,0.03725778974059967,0.13909004970030528,0.011048114739378752,24.888289681114102,12.187832710965647,15.422910015612716,17.84252247962478,28.35329669936564,15.644833728448525,9.616101900076965,3.866873227025984,0.9733528403741118,0.4157882676872728,2.9487693878161214,2.4348664668681264,0.10284380501337133,0.0067141569618717695,0.9000155959936411,0.24843664769010257,0.1363462072659933,0.009936625877981421,24.453103267305618,11.52525882825817,8.455964517381615,14.592838397872805,22.496344994707226,65.3926185707774,1780.0,4860.166666666667,2.0,0.0,2.0,0.0,3.0,0.0,0
28,9.676249852318982,0.12393300160579872,1.2539084491221413,0.6684607757844286,0.8721798774612395,0.0846513851892415,0.2160535557118256,0.01502963928761367,0.0821722903403867,0.0024563425129927657,0.3079487267607259,0.0387812223022714,57.33271848116673,3.1653155061207445,10.454892265900227,29.278346872827175,0.7953912197540735,0.9619379567679093,9.69012462647624,0.1282479037777857,0.8072463106074181,0.39090987248104025,0.34002137068404015,0.035921098017777986,0.10840429465964638,0.025604221632939312,0.07603398767181362,0.002709209622770177,0.24495552266784654,0.024314791664149328,54.33804414677917,0.3812436392679108,16.178230115486873,12.87220814900866,7.690440053267103,2.205101066753578,8.572242752645026,0.6283792637944822,3.912457624450326,3.4138520610606893,1.8558463956619693,0.4771221160555267,0.31290278451988685,0.03703298756860888,0.18949957625530814,0.022084337768695294,0.5735909645977001,0.09090767046137836,44.0621289613336,3.889022220464852,41.17475708688443,218.04637724584921,48.56303533973536,9.940146067208737,7.959046110572657,0.8799052427915093,5.283160367941956,3.177193758472142,0.8789399546586534,0.45266466244629167,0.36705010697531565,0.07259941261790477,0.25199441547454593,0.03796632004654961,0.5194158538957648,0.07214281858134715,42.17085475051057,4.692750857134224,19.284500005334245,155.70565248178252,35.78827385486903,10.17151915493002,5.82555375900506,7.488157843175511,1.8891438471454802,1.5167466735261637,6.310493183086522,12.716656665086607,0.35824664276531853,0.0751983786227308,1.31593573258811,0.74628023088364,0.1614333982057715,0.018022760830444486,19.93258867737416,133.5384998754409,58.31686909465869,59.072571952156515,83.11330391658292,166.62997775945,4.0325938091438,9.029720309049102,2.165660463799085,1.6905842563782512,7.746402482430671,14.29803291322354,0.4413736272927884,0.05618411999134447,1.5149164511184536,0.5683606767819509,0.082214307178842,0.005157704928424217,17.25594460608677,102.91742502557229,29.85360295545016,52.63929308792194,64.40224518518725,110.15047919238756,9.294650714921753,4.682072369910261,1.0447858752078025,0.45378931983158394,4.7825657886286805,5.620111843234742,0.2923496509260929,0.08110259637184072,1.5121889578108965,0.6149294336408307,0.13165332789385992,0.01143477964502972,30.61185005789476,72.63305621210273,23.739906916479846,22.869016277255824,43.421743602673544,165.18827759059948,937.0,4860.166666666667,7.0,0.0,6.0,0.0,3.0,0.0,0
29,8.569152243404467,5.555808853049977,3.6530016408035246,7.330899146195728,2.270621056996935,1.6625442636151833,0.4286599682790857,0.15790517968743675,0.426867618443854,0.23684367308230075,1.0153921673487856,0.5546015464808259,45.74231930491341,26.02971870802286,21.1162128536904,86.58641832947964,6.930456411510829,13.479204474501252,6.967129074326905,19.47274772837027,4.020207992449588,12.631387309102223,4.2649747207219795,39.97204471209185,0.7140054030197043,0.6936153710778551,0.6880804749970861,0.7442889846572591,1.274964118877419,1.7201358112086431,39.809725682270475,95.48914874984085,25.422909198954887,120.24100481630505,15.170487882175262,160.41423324558903,6.558140205520812,8.376747828790176,5.505306868546322,12.173757422590894,2.3387720850045133,3.6924543529543725,0.5253852535187966,0.12395363025485014,0.43797768903239265,0.11139016023675284,1.252885580618375,1.0724838708107869,31.6347250336186,142.76792472629637,68.34124918102724,1123.1738522674857,41.20605437884192,82.83004284911384,5.487770856976416,13.315702474916888,6.2553368063945,15.62806317701981,4.032361959726628,21.12550069452958,0.743506416809094,0.6032550534853323,0.728554904064805,0.37558613623645365,1.3276454235332404,0.998148861651067,27.54040891154673,145.64773146407094,20.252409296400103,120.98465171353291,49.16055729972871,320.23394052757624,7.455741467201673,11.933013760272239,2.1124085885727646,4.356135224070637,4.184550924682642,8.758788936558153,0.3870181421380001,0.0783876804152612,1.3625060513971134,0.644173192466687,0.41214615274781047,0.15607394553917503,31.065293371430077,81.36348823643524,38.24021498889844,202.15853806252397,52.057311600669294,755.2824856150983,6.902809722294946,6.269451350701545,1.649513410427511,2.5780807680967377,5.563059169165326,11.224482042016394,0.29760695060065856,0.04722678322287715,1.5470800947883896,0.5532793341851652,0.3685343235250972,0.07920471869426376,24.52849880986194,94.95299224862002,15.528190870008034,51.29259442476821,46.52142820114664,513.9889803321827,8.119577360351055,9.617609772709724,1.5079801824043242,2.211301516526982,4.21325815161806,7.538357098744168,0.4224111289790681,0.06533341818557294,1.2415016806477688,0.619847584336608,0.25072267226617845,0.041090311995557474,36.58476077669389,39.662539147141054,24.53511846708559,43.83032718938742,29.383534085701115,174.28769593034156,771.0,4860.166666666667,7.0,0.0,3.0,0.0,1.0,0.0,0
30,9.193221974669651,0.11656779945010678,1.4987426510088424,1.4575802457196332,3.0833249972569003,0.1134474651178899,0.2091072115716737,0.0130555045936489,0.16242619562233293,0.012451196459198934,0.2840542691521017,0.04310295159731887,31.33460414459102,2.570456532803251,9.158475782861354,11.76658371369397,26.792886409522094,22.68350850436259,9.5540428082478,0.02677435148370898,0.5964979952823417,0.24403480198670102,1.734844614855976,0.2555387604942458,0.15166745633896464,0.008072737467217393,0.08856814944028808,0.005152673168921327,0.1863756597933796,0.017912084825746508,14.51939275353776,23.67445983867985,6.283084381665431,6.2931650712726475,14.834009043903272,1.0116066407008308,2.969991037413416,7.998971566440306,8.28636827211657,4.393548940383852,2.6941021144142785,0.7012700891097527,0.31620957329917576,0.054587528272039186,0.13385819496984952,0.03005405784533338,0.6872986952766498,0.37091031887886916,18.03892878526474,47.53017901533578,93.2749726544772,289.5361586931372,68.59713237018507,33.237522254976234,2.8596009472269115,6.7235635889000696,8.974121428129584,2.361130583127862,0.8633749896009053,0.4196284721771205,0.33564377553892394,0.07425652298013388,0.16915572586051997,0.009143211925336315,0.6171272283466339,0.30433741264944014,17.659625871794848,70.32101201486452,36.88969489350853,222.96407690991563,22.007489299378456,7.7396318103703345,6.589826533903225,7.919647538732388,0.8014365351716389,0.14783682154813513,6.234926499766433,9.747659504628048,0.2947108372823718,0.03591009502522212,0.6873059543452266,0.25820752096640426,0.13922864320969086,0.023085274941793618,22.660181078178756,210.95603871221314,58.20041289270171,4.77869507226635,81.28790411414941,158.98334040896398,7.479986014702508,4.760924898060666,0.3522671781586825,0.08566701514226098,5.262429184655184,13.799521886846058,0.15626036113874864,0.018336381066476386,0.7510386271232206,0.311562882258427,0.13154032775534208,0.011003538099314166,26.38942962662313,122.26871239143266,31.635655763238297,14.674204825450438,47.47745052511761,298.08637411896586,5.713867998716742,4.225646725886813,1.700564268255013,0.6278807929705669,8.127426065349974,7.992708253425405,0.4217480288130614,0.11072818166408989,1.1018760240679275,0.5323521702050835,0.39011861721857516,0.10620763854505341,25.207989689720122,107.73470204201439,47.75628188833656,32.872943297960276,32.52142505307539,571.6091195870838,1111.0,4860.166666666667,5.0,0.0,4.0,0.0,2.0,0.0,0
31,0.8107052446319818,0.7354104882831586,4.066118185976482,4.731611077053126,8.668242007370312,2.7729311197884083,0.5559546403650627,0.2594240115950938,0.21263722887446745,0.04322037399013968,0.3709814927332524,0.19227188181942756,24.850032054537063,2.800290039520542,23.727212761524925,95.79643330577477,43.1437222967504,13.216224548313056,2.904733695531809,10.271256008803649,6.816472121201363,31.19265910591032,5.2640809173313166,19.1999441967041,0.7929247137216109,1.063833066201794,0.2707288798557776,0.11130094135817538,0.7178844177285866,0.7477357204368931,28.780764615387344,185.16193777552934,21.722974071642422,80.90757697884732,21.027697026915074,179.1577928877007,2.396966149172595,1.5303252622917722,7.111848263325038,6.603559785890556,5.936181953833805,3.1207794763021734,0.5796230026256076,0.2558364877043839,0.1613204356099873,0.02056367124074165,0.4523112304384059,0.207992458044401,5.672026884288013,16.262602778515678,90.49006814283949,26.53551348901078,77.79917942537806,36.91774997151473,2.8521820577904893,4.469939445583637,8.846791322795188,15.287564764419791,2.812663207889469,2.1135106744869705,0.5439835291730696,0.5581318612385391,0.2749507475233274,0.06431014363026114,0.4708556090165181,0.2230302595992867,10.052001169608342,21.563263218224748,25.445156936328935,2.395787025023235,46.44711364651122,154.60706877589797,4.355832281696351,2.2790624536793973,2.799786737671748,6.205643752336562,7.6810194832655405,3.874083548522596,0.4053020751561691,0.09644949802147701,0.4606586809355101,0.32610375203708125,0.26387905778027143,0.08181423453892157,28.636376353220328,5.849090542311702,57.66662065814639,192.1630768269975,12.875311155907841,201.90822843632915,2.036559892735247,7.946809420934423,2.8761184714711368,9.604275881960042,8.48799746264066,4.372067081485477,0.47161360198503394,0.28385252567237557,0.5892085843937881,0.23868021530990666,0.2003346390352153,0.07750984188512534,14.57358794359498,139.86621503942374,19.598488985255546,149.5708617248127,12.694229410520729,56.621996215082014,5.885230177109173,28.321995301872523,3.6062171489296913,16.391427961567043,6.830575560169349,22.364798794789415,0.4646865248497642,0.25685606376663733,1.0064034589346018,0.2808632686900207,0.5002965230762348,0.28673840171706183,29.813301504647583,136.98313827346465,43.5290624610616,134.67448491140433,19.220876224802737,64.57776063476182,1098.0,4860.166666666667,5.0,0.0,3.0,0.0,1.0,0.0,0
32,9.515934671109148,0.21148545324380288,1.8568726280700276,1.5081037055640727,0.9840975266521897,0.09509266529909789,0.23729534068287841,0.02535677144064246,0.08525238588067831,0.0032467790453237872,0.3748543865252209,0.029027777700197124,55.117908446125966,6.639910174974276,15.141332523456748,34.31496275181841,1.2725057454540152,0.6438026296328502,9.689392992075053,0.16663905834636122,0.6820109595092501,0.1872289523167082,0.4963536139546712,0.1181158948412495,0.12410349790858706,0.007024271233739468,0.12392699214242422,0.005108590555986359,0.17196260162612764,0.015403845065228385,53.75829338928476,0.4192847224300488,19.489648015667296,7.671254909269653,6.195929148385139,2.5836543807705388,8.311816682459408,0.8106510441930295,4.42035692410845,3.1298083896549245,2.15372049103634,0.3338966384397459,0.3513857299624749,0.03005997578996211,0.24186411209180333,0.027424033267697642,0.6083752446309412,0.036500979393168306,43.00114678347259,7.199100603716749,45.56199925371225,199.01956390018236,51.891603208676415,8.5036270768239,7.379500094291085,0.9480501167803812,6.1550890845381865,2.3190544509207593,0.9709291121307992,0.3537180760173169,0.32420090820516667,0.036729749266436434,0.30209249799445087,0.0344438834607771,0.582544024415407,0.029124395866837408,40.53765774168909,10.047811081798425,12.629155796892647,99.91730436002655,35.69983229894361,8.169501302952982,4.9335178710613015,8.054186795698827,1.973870805313973,2.189145079983709,7.303484213797383,8.634142887010688,0.4260333357539153,0.10151453780525747,1.2949771302060467,0.5616874539472947,0.14536839819122474,0.016331709685478927,17.117426076865296,81.9511952369651,60.60781597596481,76.74114958751053,87.29035902221173,69.31275919294686,3.4503315221218784,7.861188702588483,2.193509443790586,2.139468310211504,8.527301869946397,8.569449499419134,0.507597612966764,0.03969061000374814,1.4073004088522982,0.5047369100954829,0.15331735738545377,0.016714536145305277,14.753813461396705,63.91196755530741,32.046935679012314,58.491422061989375,67.06672125535387,52.95228448807183,9.53223959934662,3.3364825950324413,1.345378221750754,0.8234142520106775,4.036122841644584,5.111509143112242,0.33746951487093113,0.07642002206637875,1.191297445722558,0.4930738631139561,0.14243623702492203,0.012863526105103067,30.740720535215004,40.67165473820069,23.311788665803142,26.213157537597734,43.46695469820648,107.4666956465175,1042.0,4860.166666666667,7.0,0.0,6.0,0.0,1.0,0.0,0
33,9.679350160464212,6.454064831938223E-5,0.22940275932496018,3.8213158345352905E-4,1.6775327391644237,1.0946934472047212E-4,0.24702003344707965,5.764059926247424E-5,0.02689578840547701,3.6623783945384335E-5,0.009870145216664392,3.6255166516267915E-5,45.44773682716971,0.06115272987263676,6.510154478777494,0.07950239300174271,8.62777227188047,0.08758456896464203,9.565208700187968,4.373006437910953E-5,0.47652458044008594,7.013726053604519E-4,1.817723538865687,1.2289950254707475E-4,0.024483112032869174,9.248684314665548E-5,0.006281734423369413,1.7857955537605758E-5,0.025528058019385545,7.063277170094152E-5,35.81952684647809,0.06579522615881185,26.56662739955538,0.08152991464428026,5.611383030523403,0.05142238838971213,9.668676728529555,1.0420982934394074E-4,0.10440765535922651,9.362959397585312E-4,1.3850393003447916,2.1444341026126244E-4,0.055138925391856074,1.5626844003942928E-4,0.00561466388815827,1.936873653279434E-5,0.022069149297341818,2.771946811194469E-4,39.426700117182435,0.6294009387920192,14.299208019778936,1.128483225041953,44.95529214376236,0.7035844955283171,9.450117210134925,1.7347299598747507E-4,1.97680894517305,9.486623021079815E-4,0.9327038442445493,2.4257732703901076E-4,0.19672312021750138,7.14233036144869E-5,0.2099946057771746,4.809568887550588E-5,0.020870240723049552,2.288868140831463E-4,37.05296417489586,0.5824925328694657,49.695602211220134,1.1229780122916853,37.30245495238245,0.7241915970588994,7.8851600484729305,5.77654476504467E-4,0.13177153081691118,1.9855090081073249E-4,5.774859715299487,0.001274794033502943,0.22318213689624028,5.8750287015199766E-5,0.11239016167355771,1.0554943379388707E-4,0.020636091303443575,2.417730605424416E-4,17.552072493367174,0.4142415978633831,38.66936534074332,0.6831838618941661,83.73348672953878,0.4846826743414528,9.373492577263923,7.627861819969535E-4,0.11359564714226485,6.144712131887007E-4,2.4537087960856585,0.005153841821176981,0.04146652692528944,2.2842591330959463E-4,0.2014272825104567,1.769484870982347E-4,0.03572150213012078,3.630172082065827E-4,37.41640989216531,9.75016015226615,12.07000781373117,12.429727111432722,33.55148100160464,9.523856521539452,8.358413668588978,0.004254037933192149,0.7823181283424504,9.987671583758914E-4,5.070871131548743,0.0058224495818818885,0.1586705847523519,8.84133745454379E-5,1.2039048661829526,4.755092023586413E-4,0.017343394185853078,1.6551677567295273E-4,38.463341891023624,9.33155970223772,7.902032093883055,13.55316117560015,12.352266475867435,10.750521435296617,490.0,4860.166666666667,9.0,0.0,8.0,0.0,1.0,0.0,0
34,9.333468955582108,1.1367145187477298E-4,0.16329773870988507,1.9161272772034795E-4,3.0646101488612003,2.0041488562621003E-4,0.21641493363004502,5.0722439010819015E-6,0.05680759742670534,5.451708648157275E-5,0.012903265544905083,1.742817121283159E-5,21.43688984629524,0.052920465185046534,2.4501473285350563,0.05705735182227514,30.95252578387122,0.0873322725850929,9.486935006137706,5.569631242146459E-5,1.1519896677420842,1.6312268005561488E-4,2.0149535568917933,1.8063144047269456E-4,0.04104612872808306,3.1454977424969935E-5,0.012769547733906955,7.059687089157316E-5,0.01943871784178517,2.4745607842144237E-5,7.223605702032192,0.05820492414237973,3.7683579892043753,0.0579086272502234,21.30444407957718,0.07065303158534372,0.3340642154835072,7.178352967257323E-4,9.697421746629898,2.2534023570067963E-4,1.262644109389594,0.0018810566445487107,0.0478450582358847,2.560779704677522E-4,0.017512497998975966,4.686845267102315E-5,0.01773728630622642,1.935783056163567E-4,12.505207026153185,0.5518403341267033,122.76909362033194,1.3908280371895891,46.30652768780087,0.6648778685171873,0.9273666712258367,9.57345834545753E-4,9.70486524194108,4.4057042117210066E-4,1.694393267770031,0.0016021979875883489,0.19875785504386634,1.887133327351722E-4,0.15442315754925068,5.991439263259145E-5,0.015396199161592577,1.4304684939756023E-4,4.893012069567606,0.6291027217188563,63.36397033311519,1.3128194908241355,14.793596038185214,0.6621093986969285,8.91108487552627,0.002451319464781475,0.9340768627111348,4.7376959196780233E-4,3.69671090213095,0.01518383333126167,0.17726854720303625,4.2319709738535174E-5,0.10227101685718877,8.637118302039683E-4,0.020958713739356837,2.691869412829677E-4,43.09079805746118,0.32050568850653577,58.525916340934785,0.8438468228601533,27.23328400449634,1.052270794342859,9.280674875029884,0.003744049593107407,0.21752170937066256,0.0039002781137611733,2.9408847662423163,0.012686555349816438,0.19039833641522158,5.200610644527495E-4,0.21015302487552412,0.0029801452788932713,0.02993448957109136,4.1551854844412814E-4,33.80870875283396,7.8560408725597695,31.909130175578643,12.750703054210637,21.95434601574023,9.096056769488962,9.830638687640304,0.01301755570871735,0.12931908296925476,0.006917327073559806,0.9840371386144171,0.01242863427132281,0.11619585429809029,0.0014227205190257273,1.0943103722022283,0.002394129510119729,0.040598684544597766,8.915514325528559E-4,38.552512378613486,10.747407720787022,47.982193293907834,19.364079672117445,15.44484855920942,8.297966301092718,1073.0,4860.166666666667,1.0,0.0,4.0,0.0,3.0,0.0,0
35,9.037142568202187,103.21207648911559,7.56785340927719,90.66901379800812,10.48013686100446,98.64748523590843,2.803493189351069,7.426818123023837,1.6632817764090242,2.569203978732506,1.6000916279052457,3.2874175747656564,19.845852380224283,170.13861056472828,18.205797360769445,198.9929994060891,32.945207932678,81.3227393910376,8.147579455678642,65.00932287270554,9.92962563027052,105.00844520136815,6.773572891011556,23.11103538306659,2.013361010545888,3.68492604514801,1.1701987749023588,2.0564442050561396,2.01028308342694,4.21437855506221,17.396469388512656,53.01643655134807,29.351053108256387,179.54133744014356,35.14324312983274,91.558021003797,6.059744843231568,60.70402252474362,5.490378929665351,51.713127150989415,10.05601289435541,44.645372154577565,1.8312195808152356,3.227770439838645,1.567785813643199,2.8047646429142956,1.212384998643794,1.6635871035870011,31.06098478191621,124.1940302766922,19.982752284382883,222.58582886080887,72.1533523654542,125.20973543423726,6.879512249723973,27.79222134717504,7.433711770581877,36.209760391008544,6.1220809935371845,20.384863660401088,2.031010957828943,2.1327353177335704,1.418991306552729,0.9045944998750854,1.331033889753976,1.3527767251995182,32.644627434367706,221.76782756955518,29.423339173012256,406.2359801245442,17.752414785603765,152.119791360723,5.03334941362568,19.510464120356303,6.891036496370165,25.846514534622703,5.369191502989946,9.903211403285695,1.4593088862126793,0.838534306637151,0.841669700396367,0.6732580816777959,1.5338525707945536,2.143828795815911,22.341286502933105,117.53101491141774,79.53692934028341,212.95941889661557,31.267782664645264,842.8519295520348,4.385771892483721,29.14829281534061,7.871416532276083,32.309530151778034,3.794005873570551,8.74352522164985,1.623958832031711,0.5233204654012752,0.96250685241027,0.6433101677342546,1.2638285702632555,1.9291480149863283,26.59678302946427,87.13961542874068,43.26508680913458,255.3845133282185,30.481170595248706,255.80745370355436,3.78694403028846,16.4009540402256,9.807346886139811,78.96069036010411,4.767344905109883,8.032603295113203,1.4509262282051594,1.5874090547830713,1.6646937803438715,0.5938087745476739,1.4268465939372066,2.9438102653361518,31.189501335388396,107.84412061750874,55.66424453703694,694.3836452044787,23.638154394259963,204.99964260822998,1308.0,4860.166666666667,7.0,0.0,3.0,0.0,1.0,0.0,1
36,4.869586204759258,57.01016943509699,6.5776367038797545,36.56137451460355,7.4319347778598,44.97408555657058,1.3807379283724426,5.62708454541392,1.00893534728494,2.1298812515329133,1.0508697717530262,0.9399579074153349,15.044754309216476,96.56919558600221,46.954334417319394,27.782131482423594,25.368213865766883,47.86790803342748,5.577997542693593,15.173655483878319,6.580439242213593,11.981887237976919,2.7101128822949976,12.089453701727871,0.9094069074622947,1.3530759769516005,0.7777033422141785,0.6602864873804484,1.1507785114695421,1.403274057155751,21.136379525745557,397.5035011242467,32.39474565384299,71.38397630909951,25.26557252416967,151.93748460654308,6.006324876517181,27.58980892838597,5.207785096355952,13.317711728416759,7.130465606188873,58.362311051474826,0.946850506815428,3.0066344681562223,1.069288716634834,5.636923507914847,0.43600574443338985,0.5053039122859436,22.775239176151665,58.036172734623364,46.61915421733223,876.9472209324201,92.56675729712015,70.69213717595049,8.518141035415635,17.161207091451306,4.152990681799399,8.870638850079711,3.989246595627725,17.60834779834409,1.006526169297575,0.8860967246659468,0.9817247305826682,0.6474315312918454,1.1621975607226152,0.5053589507602938,34.635764209066686,154.58017142445036,13.98007496047564,79.75093404044105,8.905717278293555,32.83644805979572,4.397538418344443,9.054473117036753,4.251838834107084,31.83809696531922,7.07021823994568,21.344035771243384,0.8270249195180494,0.9350959389932247,0.9570002953475535,2.499094455788881,0.8619200305139387,2.486344585260397,19.634706391833134,29.999173929696248,85.2046988396229,132.81977628146157,21.643703963646193,678.2085564498165,5.4829333239076545,44.46405534818171,4.081789398434498,63.717037557844264,6.843105306130104,19.316127575165694,1.0199284517452367,1.6306933710390628,0.9292996882212723,2.4002679259704043,0.9073375435073254,1.4339171789971124,19.48533825573987,108.05300633228366,33.562860211890765,87.2782314935007,19.452090962098225,352.09863022354267,7.493461235480468,75.13819386524253,7.913205966044264,63.398539587855275,6.220724647756496,23.515243514357962,1.2450789754023908,2.6857048812246545,1.755487379480561,3.539516129404196,1.4648479323223604,3.8899996202373215,23.180244652685783,146.34744542950378,52.90078118332194,715.5804387785571,18.00676854863701,146.99571688848903,1650.0,4860.166666666667,5.0,0.0,3.0,0.0,1.0,0.0,1
37,6.236037971774556,35.51671435437774,6.6993205644020275,82.0413145369374,7.458072822088862,86.1182584524302,2.3092415950481326,12.183665882786272,1.2066817095163143,0.9491273360085586,1.9722184341138083,2.5617790566629015,21.461212493510168,252.15112722070683,26.4475273410809,170.64351733643377,32.39056542305531,252.77584253023758,7.083658538295025,24.647545657634165,6.078124049247177,87.67819887865807,5.150549098930449,49.87121035691215,1.663663362384739,3.8518719268869503,1.1258208818368505,1.0632316877468229,2.0198717730707214,2.132382554868067,31.309215205833624,348.87419049798615,26.37275361226431,290.78755682839136,32.625787465898824,192.56418072794204,7.536462014579674,27.16933289575002,6.040612123172375,66.33727002224654,6.359324728490406,74.31001884847994,1.367341467849833,2.299746035444627,1.616175708900055,3.427882450243688,1.0730582926909273,1.1360746540935598,28.033554040544754,183.10026695745,39.80557635216297,226.10239891672651,69.91228485107422,53.12264116193079,7.55320343832752,13.0026868070114,5.479073893557075,68.86802655403405,3.675471335139388,24.81401322905735,1.4636310905457717,2.4900374222657304,1.1402329024820128,1.2246363212850442,1.721848721774411,1.265334285104201,29.485905917600974,192.16505251655906,18.29481624988105,134.35119929022702,15.657858873705894,106.96674091007056,5.056982631087921,16.08981784400092,3.884602161450891,24.273008949069663,6.181349402594987,18.636064837153484,1.0950445229679353,0.8783607528363593,0.6827938239325874,0.2899636600186288,1.0040033269399213,1.3973211183526113,19.27100665681837,198.35200002523897,71.01022945103308,90.97762849002947,29.92761517956049,595.8821038145418,4.685437795068466,16.04120104411454,5.7121677915894145,42.23684660432397,6.2460079557451715,24.559568723134966,1.145769002729026,0.764369663860177,0.6814148968471605,1.3550936032313414,1.2133996288429296,3.2138237971551553,20.822625795093316,161.8269021529216,27.48224435372595,311.80979864974023,20.184352285247993,219.95415174294487,5.595044405860401,67.18639124843872,6.113048006776581,98.62250523792288,6.71360202300598,34.84578902295728,1.1407062518526316,0.6950810379019033,1.3412971411874186,0.7023069727832937,1.3111283213143619,5.600698936196195,24.72925954240981,142.62177426319633,39.18238019040511,523.0984678346388,9.51533658981818,30.6224550677237,1141.0,4860.166666666667,7.0,0.0,6.0,0.0,3.0,0.0,1
38,7.4893576240213395,51.6467515648367,5.117306939601566,61.793173816991086,6.734267557032128,122.53604451724667,2.4392074624924724,13.781276685705631,1.6047679470220186,3.3540084698260233,0.7744399660582851,1.0679101355787208,25.196035854302007,458.8532416971852,9.624020519160137,17.824568273036437,30.487848197608507,262.9015849239741,8.406812058630326,44.586679197559974,5.447445459022376,94.44996064442753,2.8921061191143647,8.223209209925937,0.6494846782497086,0.4455277301636861,0.7595390144124998,0.3622009778066337,1.5129418790205653,1.6871853298248571,34.26545309327945,118.65501045099246,24.201553697160666,68.43438646604075,8.586767629554101,32.558817666017454,5.021563012176097,13.662643181213975,6.290428356194088,34.754504761548965,7.25315622704034,76.6619348902972,1.7513778148445058,5.056016896142966,1.155081221702435,2.5969860506555373,1.3852474386823128,0.9989797722600235,26.8041047445224,99.21194220255265,56.08500094829259,363.71441056786097,85.37267672273627,414.28357425781616,7.399197045852782,30.596957090228837,6.173486234457909,51.60354796486963,4.79441718244732,44.04317551633768,1.280411696355187,1.8992046753144194,0.4169255081299476,0.19109628768543716,1.50579258256217,0.9599695866613367,27.695703521309056,143.43551084580858,17.989084730009814,47.81458570302242,26.98176239140301,92.2476544722162,4.800358781366922,16.624995174034293,5.881604297987003,75.79622052894737,5.587974879109104,40.7134959690793,0.7362604940395138,1.0868598306066768,1.319002570194111,3.705711159063734,0.9933860624881453,0.4097897510885475,25.854947244477966,25.54548755780227,78.1964471904074,676.3958952078943,50.31511654319914,1078.4759460056823,6.848982431071799,40.43571112714291,6.278756231285972,57.91909782627952,4.369244500855563,8.349283394607705,1.0735603998109884,0.6649112908154101,0.6574659887448879,0.7983893786121575,0.9438299502775506,1.2414176272857602,22.611844957678645,185.39693233943126,42.30639714126271,201.40091137750758,29.570046367239655,275.86614894985246,8.262458848127423,32.00308571617068,8.185837862974504,66.57680017046967,3.2842559463101058,28.246450508235753,1.8361958517959627,2.268776581039568,1.3324489690019474,0.9915802533754106,1.6111374438848516,5.170435439603056,27.687593589432506,275.7726794250021,47.282150419173895,1496.4040571447445,14.45407173756309,138.38444345289955,1006.0,4860.166666666667,5.0,0.0,4.0,0.0,2.0,0.0,1
39,7.305306360512466,82.21498847295967,6.634506584388586,65.90416408965935,10.563132252652368,54.40221365513534,1.3797906020548025,2.6082650836774133,1.2356097884872286,2.23799679638312,1.149431013675113,2.0559636747429466,22.757126678693343,431.20624600553987,12.225879442271355,35.67614001893785,38.60492793108912,455.48630983270573,5.846969851984399,15.614687363397717,4.815059927458337,43.354390796077375,6.153401459404944,15.641261009930153,1.0195389645243222,1.1848214561680341,0.5640246231626734,0.3159267659414913,1.596134253725394,3.1714980972209457,21.579112484958408,248.9393445948322,47.54387824663977,222.92177854203314,26.98630973418471,268.9625373424255,5.496226203535138,41.20123712698088,4.305655359332565,26.759538706797894,9.316856243674685,30.239746308725152,1.6903072925476759,3.5625079189527766,1.1065444201844479,2.077451460343208,1.0552740374105911,1.6892475648351397,19.501712512858674,308.1311153896323,56.309925538375666,145.79012489205346,72.00402839154128,688.1554074973008,4.837439294309352,23.80039550794862,4.652367023407208,20.422613204554818,7.167379065791601,13.967445701856503,1.4555052473147967,2.3257441809331265,1.0630454463474608,0.840258769289856,1.1275870583968863,0.9148673198140125,24.600116878129633,283.004215427297,22.633553474275896,161.84204690326018,16.08446460195597,128.1012066343411,3.9726854124709314,16.25363895745567,7.889002754264105,18.943116068877096,4.455961748895803,6.164809160626391,1.0968679335350906,1.2508583113513416,0.8109383151766987,0.5605342087160005,0.9758386164111437,0.7804319628335998,18.065473473418304,94.75576252039777,80.61086140232956,789.8999130165508,55.31750410721015,506.44079418613364,4.960286311117383,33.35505833386001,6.925772865654522,29.729337665237615,5.941600994063982,16.399841770802485,1.4280800992445208,1.6597528424741315,1.0100419759572603,0.7718912961004769,0.8982420663534822,0.8550613470273157,22.87265276513159,119.93964110502196,37.93871561818103,192.83307646021456,42.25572524327955,379.89056085259455,7.853185751409699,49.09150788862935,6.870422286085815,24.420744757767253,4.213817808181975,10.282435266866852,1.1231224292539508,0.7226390689541742,1.7952985654264317,1.4369588344249984,1.1828883075584267,2.313627512342918,26.05779438914105,242.96754122886253,31.479555466424873,822.0403824343374,16.723078687827943,110.66053062565847,1123.0,4860.166666666667,9.0,0.0,5.0,0.0,2.0,0.0,1
40,4.14540084608332,13.468931546836128,5.364299039854919,28.033067222676358,7.156636461059088,66.42307237883226,1.3466050453885956,1.706502945316153,0.8041321168937701,0.7363493808781431,0.6796266031973218,0.3660262713099541,17.37769159560258,105.99754674829775,30.57191068799664,219.17217315619644,35.579199734812455,365.01941006889786,4.3715820362891895,26.1525079498357,5.099414818641957,47.92698882938911,8.172457494087038,63.19562178396738,1.5079266713541852,3.790676202115384,0.5986615535411868,0.7725230068359158,1.6892312414619561,1.8830015291382318,11.891896809903418,140.50108402010292,33.50853221149365,269.78059273763597,36.29330697414539,357.86790091826083,4.37572187881654,24.45292791589882,3.7265556200650902,9.880784318897337,7.2820473100132155,29.678661086639426,1.1246798381545577,1.2939434458563785,0.7413177519857486,0.7646557690226888,0.5649946790132517,0.30521552747830116,16.235227569628552,286.4990071250075,34.79870003783357,181.40118730243321,13.050182615201997,64.59620751354109,4.898928919622551,27.981072446115657,3.5748163085987334,41.26356679116916,7.311408095115881,32.151344535958636,1.0974060260049256,3.9461026264675785,0.9551028383826196,0.9506486533899104,0.9907703490700962,1.4678210842975754,22.24434114708198,187.20701401381282,33.09849990069619,132.34569307395742,72.99072784803715,474.570333567377,5.027125488734839,24.26516465937474,6.993838947652781,31.496394193612623,3.840310546387899,8.308163509441124,1.049812000227466,1.370673943536044,0.9269528200828636,1.4186405284215415,0.9421283796572617,1.8358574614071776,19.928404883354037,229.57912147187142,23.81751420228313,26.991762907350036,44.9531146955688,169.24470818089137,4.739289500425991,20.401246163251937,6.789309430357331,28.456088333840516,4.074478377692432,20.341688696483843,0.9201685918038093,1.2349793932420943,0.8152127277890522,0.9460481043336053,0.8082825071130072,0.7054584267643471,13.94509870674523,153.97585775057516,16.448783670903737,144.70212541344137,40.530665441172744,167.27762974706712,5.550915846284247,27.91518944217493,7.584994447923795,64.55877937130717,3.8609870357508482,25.284859250616233,1.437896103895737,1.7404396405915716,1.6897447228091633,2.1418950345561205,1.017655483819176,1.6993197498339994,20.968284871691985,236.4611716134044,11.69185850679627,33.56835820363707,26.358829504226748,169.0937193948294,963.0,4860.166666666667,4.0,0.0,6.0,0.0,2.0,0.0,1
41,5.304353668273299,15.12129558859855,4.200806975882516,25.08648859133382,4.91548148458785,45.03380045222374,0.6931712895378671,0.6700104774850145,0.9608449656516314,1.0386885031137016,0.7560912399664831,0.7840640364329622,36.12687593673769,380.7842177236956,24.405076902931658,139.74277784682172,28.72402382309112,388.5172530766191,5.912991351745559,11.085099067114282,4.8138335855886405,22.73837209369132,2.757707178855462,6.616536579081999,0.8016362641319725,1.2474807932537568,0.34303708750362355,0.19284565489097438,1.2649087571921562,1.284665408947786,30.98198247351587,460.63433855007077,29.983038574086184,154.92300792300983,10.209127558712147,15.536652642582686,5.689206200083756,19.22813839724565,6.903879072347123,14.833867435326896,2.532425292423652,14.20500380781314,0.5004205851901624,0.37142205985127635,0.6341799873234588,0.5151587622386348,1.2658532609720134,0.6789546330374124,29.09831420718634,129.23212363675378,104.02179952281145,111.91159405655121,38.652682165881906,59.46344658175151,5.882117455063921,21.966435821384476,7.021400308120548,12.3275667824383,2.2111322567769216,14.38646760889446,0.6502795938510618,0.46010125916094746,0.56025869161648,0.26136617932263373,1.4858179237013411,0.6814460651685891,28.14601067982274,124.35086465686928,41.78018038896109,82.38988742994843,45.82154944328846,17.35687557851418,6.008488205199698,23.78703351562161,0.985798631079835,0.5573514880062664,6.8956003460523005,24.337265679685324,0.3284830873294954,0.047992542309741905,1.1886970226795903,1.5002482361542497,0.18902089541497316,0.029714739005099623,28.73986579471604,292.9738910115922,40.94454470116073,52.547783280364115,40.00680358924312,589.3150809363085,5.666478635403192,34.836631542089584,0.9806814961180311,2.1822806756382933,7.354354663755884,17.48078159559044,0.2194635522828623,0.061381522404838296,1.0548872073727786,1.0835711275175883,0.14321378446011407,0.029205836802180044,27.04123825453129,110.91426965276597,14.374850083930859,26.321327235285814,30.75581088952751,347.24485269641525,10.142564085431985,77.49880314048815,1.8971167240952165,4.0138784286268505,5.74355799182322,16.21780386952341,0.4241256183051964,0.15699705550046397,1.8955793420424785,2.5237908499745876,0.35539461464594074,0.11926382564270992,31.81417939864501,179.03405147982392,25.966960674499575,79.29328646576762,26.42242782380571,84.683654770026,1264.0,4860.166666666667,2.0,0.0,4.0,0.0,1.0,0.0,1
42,6.912300017612109,72.72974760281294,4.312161364372341,26.856906029411856,8.942043211620256,32.98347482314019,1.0369378185262943,1.537727028926554,1.2464304102166397,2.0340312845965185,0.7988245830676979,1.0723064108825437,17.67331398244468,308.88904359680413,13.435768882361439,114.19882861921518,40.29293604955634,289.70423001096424,5.234750182363997,18.817593814471106,4.426580026038609,18.640032911524138,8.510523137153431,10.634953310533165,1.429761176447759,2.07622644509572,0.7147959351386968,0.7250192089342388,0.6873039604523083,0.7501359341568862,37.59779382444516,171.15266756224645,24.698780079600226,28.791340513864615,37.42931468852823,88.5221726545783,5.731277661266663,45.510836131869546,4.482978710077734,38.89463408579611,9.457359655022126,21.644196750360567,1.1682517853796412,2.318418340948093,1.0803820953289718,2.2118794302896765,0.8729133790158918,1.3803287005268772,16.418745790796496,290.18524832742764,54.834840837850614,148.36569553320638,74.61910249385596,690.9711240214916,4.373193723980446,20.369244344446248,4.942735677376327,31.09863845603081,8.908222715134627,19.746429819141063,1.8520241097090147,4.090636961133007,0.8026453974278531,0.5495588135385668,0.640301558518535,0.36273480590988666,26.070284245914443,124.35612224300854,27.73624665905331,37.362292950149225,10.493863004248173,18.110233633669964,4.226136442880567,19.70604585127137,9.101336936454803,34.8531046279414,3.962275941218578,5.060140998970087,0.8154254657717778,0.5794075973698612,0.5014152121863592,0.28892685075290425,0.8803777129039617,1.3241104578783214,15.722050225277165,121.826963237891,88.0389066672424,558.9570207898455,52.41646786448372,351.4184896200281,4.079029812017664,23.351789898190578,8.806476980014954,26.313942502619184,4.73912688848636,28.11651958409691,1.133235850209115,1.3991573689917893,0.6201772969370685,0.458180161473662,0.8213520951994648,1.4658874920873164,25.300710262599328,60.37915651588161,36.66413122786526,441.2359435352228,43.74831933302504,93.37852997547006,7.639283937908307,79.50233876951694,6.8640651134658155,46.648729566373355,4.171061385685725,14.51674092705888,0.7236122704744803,0.3173828384669005,1.6689206003076185,1.2365478721597116,1.2504534362549642,4.946303813520961,19.324600168762736,272.68800014017086,39.741190184788834,843.3072884960928,13.380138651463996,34.05094003013537,1235.0,4860.166666666667,9.0,0.0,5.0,0.0,3.0,0.0,1
43,6.529717891681862,10.203336889702468,3.647095994289609,3.8138750353906516,5.860141311830134,31.805576443523655,0.5724772363553341,0.2863620723413335,0.940031699598593,1.2294639906594704,0.7317771968254008,1.0686722410862806,46.942263433052794,36.51549009355825,22.942576424956815,61.18731977085277,25.201567819998967,269.10486783110355,8.535596257423464,10.61616029777742,4.443575868638101,13.93269981233122,2.5047632811443217,11.917639829354313,0.4668972575707631,0.2133704433716275,0.4886045559727624,0.32298188039992454,0.742036589865739,1.1054181446663398,56.81165660367467,7.49461539392967,20.920784485228822,203.13052087595992,9.18421748707156,18.35194617867853,7.735423045812554,22.892733914255256,5.032177472199193,3.8027757728974496,4.118611146923912,35.64279992074823,0.6740010511284671,0.390419955212538,0.5392816945431267,0.37704420294389285,1.2813598726516449,2.0158769653534128,35.542478463214465,96.87771057441755,102.57552274332006,313.2980966399347,57.37721212869858,111.20514764846523,8.137307492191072,42.36663390371241,6.085775600761732,8.322348350816874,2.7593358028216355,6.384872340789211,0.5852693670315289,0.23985577911217285,0.3839381633826852,0.22444450323644763,1.1020682963819912,1.6916947666537323,32.81940913954711,83.89322908933133,25.442041622899875,149.39731931144786,26.60780563196206,75.00010828489874,4.243936945448525,11.877548446489715,3.398013914088985,22.05694470465595,7.012951461265938,46.355623688884826,0.8498397566285371,0.48420544878367083,0.8532257349980528,0.6154133131421564,0.35123494558936735,0.14068945030069152,27.81369324838472,143.8680110702275,54.59023831790908,344.66193484172464,22.75490372767092,134.30810735903222,5.190660095882324,45.292787402331605,3.3514367455338356,16.980815951526747,6.435204367300194,31.25858294151088,0.7073686813386891,0.35855943208934765,0.8328351754101265,0.8783060734967946,0.5085200383779555,0.41911151169153726,29.855354675118853,112.24893857131092,13.502891058438454,64.93737622035529,22.606423514388904,216.2314527277263,8.689606696676417,85.48956821154329,4.67990496639342,20.067188218492273,6.290257814174124,7.512832961788015,0.9998269846152777,0.5308153785315629,1.3553510396296924,1.807100946005221,1.3635925157691249,2.2761546872684844,27.881382417011064,187.68612852679587,53.091826363717864,132.1746626531381,29.390475641642368,266.8425200087274,1045.0,4860.166666666667,1.0,0.0,4.0,0.0,2.0,0.0,1
44,10.02386594135546,68.16055873055403,7.112126595004465,77.12683297620131,8.622947828681884,128.47580276191593,1.8399337776839981,4.299739334180152,1.7871753862166306,2.430156466054905,2.587724765909534,5.797225363146491,28.40862754877672,246.26328123551318,14.243618246245186,163.45090453685583,43.35908641125157,308.1283679052752,7.369619584862622,60.76944410375155,7.178533370131279,59.21925456212947,4.408637897416764,21.50225310232919,1.7889264853423872,2.8826585964103697,1.0062745152914672,1.0100518468167359,1.7212424839989773,1.4450296619870238,31.546581882488802,404.9601572473524,35.430963421016315,161.95077285041944,21.501692414531075,96.87417353670895,8.298050743322896,34.54615548970177,7.2126484362879975,66.9706223516286,5.9386277496650495,76.49582171786253,1.5673797334355004,1.6695998060670905,1.3872486338506287,1.2462919222309905,1.8600136058103618,1.4247309523128844,31.013477924206445,118.43565625970645,58.5362691918844,282.9002958266117,73.25934711630414,112.0638766991374,8.957797831983239,26.638026048689312,5.130375381574591,43.93706144350127,3.2034579231460527,11.457382414890914,1.5074204885366052,2.047993434629533,0.9220793398823667,0.3925444896900542,1.85465095250933,2.172118381917923,33.61166743164364,161.97631027218225,17.59486703172759,199.21164390377376,21.702767733778202,151.3680355238748,5.792085604127789,44.04756792141334,3.769894114327646,27.896193869060347,6.208523795758355,19.481304641467013,0.989020155903862,0.7869543693650913,1.0290311882796472,1.6882634934166785,0.7381793882652414,0.6325008442688725,20.750261019621647,190.65014226447394,76.20480606269045,99.76981175942709,28.97833570108374,478.7955138055329,5.429805673102373,41.41740673618831,3.8170129801243298,12.841053091821708,6.356087783572778,20.591352782814138,0.9304729668109912,0.6575830820496129,0.8783112007127573,1.1803860688935581,0.7599786215517824,1.4260725860437586,21.553324641775788,144.6288844597675,31.973956867866992,100.39886912276195,27.173398003291293,309.8624577621968,6.165565438765677,40.316469688691974,6.114140981931966,31.353084135931088,6.620587634997002,14.566951513140618,0.6663459735684372,0.44598388617368884,1.3551238777079229,0.67999127645659,1.176282280163851,2.977012043467525,23.791776317407482,269.66763472983024,37.937380686835134,332.1715061315063,10.162763140515978,39.1870407749217,1180.0,4860.166666666667,3.0,0.0,3.0,0.0,1.0,0.0,1
45,9.328481254735923,0.05479650129270624,2.0167091741106815,0.2680450565355605,1.9785817145559303,1.0298372543964571,0.2994560284532328,0.033950974216913,0.12368147741980016,0.013242738798207402,0.11497926527292662,0.00916448525379487,39.343504450627876,3.6078311191931296,6.412297931449542,3.110744023768409,2.90982188697116,4.15527709109363,8.911172803506812,0.06563814049114845,2.863514931370114,0.3724763776332526,2.962134167861147,0.3505387639207815,0.0732785310035043,0.0032195253263597196,0.09991579250402602,0.006876159265640041,0.1654887848033249,0.008093285670404215,2.91780806192935,3.173860219815898,4.340156860726874,5.666512699957992,30.170847603888927,1.1312667665962137,3.8337169736307364,12.578798024785067,7.4567023471183305,6.090385534250258,2.5127923325384307,1.1751655447571248,0.25562864289758147,0.045494548377173614,0.2123291115547024,0.018837208543214603,0.6906353655919487,0.22338599044881097,19.48287326270614,119.7345947435215,85.84602566477669,257.300420150849,63.067038033513114,8.724834443372506,4.1555666450751145,13.357782667471954,6.8777789757954135,9.330996786640023,3.1974053966553875,1.0907193582067274,0.37876181829338157,0.04606650681359737,0.2497804563362596,0.031010910449293338,0.7247301409353359,0.27444899125877026,25.027704944749097,194.93850977455077,51.17145079702015,977.9585976729654,47.303066609806045,107.00253603430124,4.3649208085665565,5.203493721413087,0.4437677964545918,0.0906283025276077,8.478352000604527,4.2629197450893805,0.24383056386329496,0.009384214068423291,1.5349524699738906,0.5349899941217501,0.23731689634481715,0.0278723118048125,21.535957585417382,114.15130132034527,60.370665427560134,4.75103609536802,90.41705065841991,60.90165567221761,7.537266620461872,2.207324453894873,0.4966713750070247,0.12413239983199348,5.089641410652625,16.005087480462908,0.1401977843548948,0.012518530461612354,1.119608236306745,0.26418453801557457,0.11882982170523272,0.0071645034775147795,28.685782064540753,77.04804238192318,35.677476685076826,14.124954470948039,51.94572047474968,175.6717573291718,8.763161940198716,12.446492666650466,1.0232572415959538,0.5279081729489806,3.8863887171187588,3.9405646130159755,0.23457055660476714,0.02594451012877861,1.257435953669652,0.6531837163087324,0.14732505011911354,0.017875866010398707,35.253067958404415,26.541637753897202,39.752028896600876,27.94709070332326,8.798866273642082,52.96068093847181,906.0,4860.166666666667,10.0,0.0,7.0,0.0,1.0,0.0,0
46,9.702095197938785,1.3792297069768487E-4,0.11902096246164369,1.577874247713106E-4,1.5391534710326136,1.7800926740058385E-4,0.2195569083898394,4.251604560725181E-6,0.05751851853369677,2.0431233784777413E-5,0.013450639001654144,2.05453547777102E-5,51.445275714288606,0.048828852820185537,12.705659019501873,0.06603852279723317,8.87591354876633,0.06891262486557986,9.663479270776772,2.0339309231901204E-4,0.7859609407755349,0.001077237744431288,1.0465605854988098,2.55074964091677E-4,0.03711926138716367,5.9493437767271E-5,0.010943199167582612,3.394771898486467E-5,0.020074477144884122,4.9151844358955595E-5,46.11355537003006,0.09203329479867346,19.84860931491456,0.05235809498236197,0.7388657279992746,0.057767156014700165,9.648486133432982,1.666467933356698E-4,0.31687070151087654,7.771777710417932E-4,1.6144971535908237,2.453176607014054E-4,0.031708539352477895,7.200319744805008E-5,0.014567041533894806,3.112742962084424E-5,0.01932203734430163,2.2976624332098566E-4,41.771206741016435,0.4888666111283103,29.086670578762703,1.8027675350376462,54.20121617930559,0.7992232279875663,9.66225951341178,2.2163602628826043E-4,0.18696473034956643,0.001179445318941382,0.9505010991670284,2.494914203537745E-4,0.19747423686674523,5.2652073384529204E-5,0.1577508377831012,3.143775250094587E-5,0.016333817492873905,2.2942094798084688E-4,38.85246145477928,0.47422312046634035,47.74697269740441,1.2349402153340843,40.322674019208094,0.7105577837140532,9.690958046814218,1.9046940533315072E-4,0.23945918264972718,1.638875486131951E-4,0.7278786069130008,7.508609388130246E-4,0.17846463527916873,3.891791112384798E-5,0.09680278011872066,1.3803133753913908E-4,0.020451456419466628,2.2722638935507137E-4,37.77698967961355,0.48960046181625877,44.53398496382464,0.7392138605109385,62.245129375536905,0.5092867966314413,9.68557577805895,6.42648193264615E-4,0.9780043791438534,0.0022884891019802765,0.40045376338404737,0.003022974781109605,0.17377893824547652,2.7525430464622904E-4,0.2072252492068714,2.849155985414268E-4,0.03597959747279055,4.6744505938780607E-4,34.8552295953901,8.834500249024801,18.988696822486972,12.273902154063796,39.12185358704373,11.432515736038077,9.846267078922002,0.007226806227431201,0.4840292570749259,0.004915131106065187,0.672842859232574,0.004162054808747202,0.14181514912868437,6.396757605955478E-4,1.1124322978292758,9.568645802961126E-4,0.02084868458107875,3.477318812263858E-4,39.06939439259129,11.21538734696551,25.862698024733927,17.666722415370565,32.62479217814212,10.632773786159477,275.0,4860.166666666667,1.0,0.0,6.0,0.0,3.0,0.0,0
47,10.529685560845735,15.278709578014277,2.99747818710352,19.394846378669424,1.668189628159867,2.0235058890829873,0.5482562867039621,0.18664226781580054,0.1978852952636307,0.04558718117244649,1.2152978612701273,2.018986502692258,50.95041055798036,59.81981172255437,14.633278537588001,133.10530296924188,33.54697684133696,2.5056755411690776,10.108176786869889,19.515877365807814,4.08292121977325,28.895859384401792,2.6821798556233096,8.736620737841417,0.5844212244863765,0.32113523366394775,0.47033775412029283,0.21045438007209907,1.6330348136158528,2.393819522935149,42.62644730563975,105.87405075405243,21.678774282150744,253.29770002512726,36.038924775182956,15.850371883314619,9.527600517906095,10.291364786289456,2.9589996676084382,12.97542691257443,1.7688305865494047,1.6918349636804453,0.5485864481318711,0.22081612638359657,0.2637044893102131,0.06693586018662914,0.4768304105317201,0.17920035032927212,37.94890741688582,7.909474292319683,48.39030561011857,41.12939638443798,15.363898799627155,7.3823507353062885,9.354874506036275,13.00219281814457,3.1487692315131426,8.732999447811856,1.7532016766562872,1.873313810874582,0.5675265643092575,0.19175946689518292,0.34150734886573436,0.04304407830882996,0.5289527334048726,0.29476145411173266,28.92978879524959,11.966939720683605,21.43162200658648,45.77547315440119,80.33932289345135,2.6693081482506495,9.59458596478854,11.776394994192067,1.2623795265664204,0.9752493337499986,0.9028490689729004,0.7207193595239508,0.33185408846185355,0.04274504957050212,0.3074771695542323,0.04799290002043714,0.3152071773166347,0.09294918633097872,31.54527793979249,4.207548863896428,4.028503120401527,7.680938870710857,40.049729374929086,5.483553950193527,9.564451045515131,12.112827983761987,0.9423508210184006,0.7464109588700906,1.6077108730511793,0.7119274396055241,0.22017298778162783,0.03128637777318484,0.19461839502912567,0.035026663483979474,0.14388431947259522,0.01443671123220695,26.675163854701886,16.639419332736754,18.152797196415946,14.69658249952912,14.97001366397652,13.11525391415538,8.807755932273707,7.662600447681909,1.1211364978887681,0.5266642868265229,4.041953239956082,3.003246386736663,0.17950885468143274,0.01341641204100351,1.2154575798552314,0.32425384747204694,0.16195943158050358,0.021745164407868525,28.498123766475693,19.336922691621236,20.487887712929755,25.674374421096925,6.16594386460932,23.38557429865267,1990.0,4860.166666666667,6.0,0.0,2.0,0.0,3.0,0.0,0
