,mean_rankleAccelerationX,var_rankleAccelerationX,mean_rankleAccelerationY,var_rankleAccelerationY,mean_rankleAccelerationZ,var_rankleAccelerationZ,mean_rankleAngularVelocityX,var_rankleAngularVelocityX,mean_rankleAngularVelocityY,var_rankleAngularVelocityY,mean_rankleAngularVelocityZ,var_rankleAngularVelocityZ,mean_rankleMagneticFieldX,var_rankleMagneticFieldX,mean_rankleMagneticFieldY,var_rankleMagneticFieldY,mean_rankleMagneticFieldZ,var_rankleMagneticFieldZ,mean_lankleAccelerationX,var_lankleAccelerationX,mean_lankleAccelerationY,var_lankleAccelerationY,mean_lankleAccelerationZ,var_lankleAccelerationZ,mean_lankleAngularVelocityX,var_lankleAngularVelocityX,mean_lankleAngularVelocityY,var_lankleAngularVelocityY,mean_lankleAngularVelocityZ,var_lankleAngularVelocityZ,mean_lankleMagneticFieldX,var_lankleMagneticFieldX,mean_lankleMagneticFieldY,var_lankleMagneticFieldY,mean_lankleMagneticFieldZ,var_lankleMagneticFieldZ,mean_rthighAccelerationX,var_rthighAccelerationX,mean_rthighAccelerationY,var_rthighAccelerationY,mean_rthighAccelerationZ,var_rthighAccelerationZ,mean_rthighAngularVelocityX,var_rthighAngularVelocityX,mean_rthighAngularVelocityY,var_rthighAngularVelocityY,mean_rthighAngularVelocityZ,var_rthighAngularVelocityZ,mean_rthighMagneticFieldX,var_rthighMagneticFieldX,mean_rthighMagneticFieldY,var_rthighMagneticFieldY,mean_rthighMagneticFieldZ,var_rthighMagneticFieldZ,mean_lthighAccelerationX,var_lthighAccelerationX,mean_lthighAccelerationY,var_lthighAccelerationY,mean_lthighAccelerationZ,var_lthighAccelerationZ,mean_lthighAngularVelocityX,var_lthighAngularVelocityX,mean_lthighAngularVelocityY,var_lthighAngularVelocityY,mean_lthighAngularVelocityZ,var_lthighAngularVelocityZ,mean_lthighMagneticFieldX,var_lthighMagneticFieldX,mean_lthighMagneticFieldY,var_lthighMagneticFieldY,mean_lthighMagneticFieldZ,var_lthighMagneticFieldZ,mean_headAccelerationX,var_headAccelerationX,mean_headAccelerationY,var_headAccelerationY,mean_headAccelerationZ,var_headAccelerationZ,mean_headAngularVelocityX,var_headAngularVelocityX,mean_headAngularVelocityY,var_headAngularVelocityY,mean_headAngularVelocityZ,var_headAngularVelocityZ,mean_headMagneticFieldX,var_headMagneticFieldX,mean_headMagneticFieldY,var_headMagneticFieldY,mean_headMagneticFieldZ,var_headMagneticFieldZ,mean_sternumAccelerationX,var_sternumAccelerationX,mean_sternumAccelerationY,var_sternumAccelerationY,mean_sternumAccelerationZ,var_sternumAccelerationZ,mean_sternumAngularVelocityX,var_sternumAngularVelocityX,mean_sternumAngularVelocityY,var_sternumAngularVelocityY,mean_sternumAngularVelocityZ,var_sternumAngularVelocityZ,mean_sternumMagneticFieldX,var_sternumMagneticFieldX,mean_sternumMagneticFieldY,var_sternumMagneticFieldY,mean_sternumMagneticFieldZ,var_sternumMagneticFieldZ,mean_waistAccelerationX,var_waistAccelerationX,mean_waistAccelerationY,var_waistAccelerationY,mean_waistAccelerationZ,var_waistAccelerationZ,mean_waistAngularVelocityX,var_waistAngularVelocityX,mean_waistAngularVelocityY,var_waistAngularVelocityY,mean_waistAngularVelocityZ,var_waistAngularVelocityZ,mean_waistMagneticFieldX,var_waistMagneticFieldX,mean_waistMagneticFieldY,var_waistMagneticFieldY,mean_waistMagneticFieldZ,var_waistMagneticFieldZ,mean_id,var_id,mean_subject,var_subject,mean_category,var_category,mean_trial,var_trial,class_label
0,9.784459914950377,1.610532099643007E-4,0.8299884480007446,0.008204598556687565,0.3891652489894003,9.961936825148008E-4,0.26862294519145186,0.002432873220753285,0.03110770717036823,1.1638552824876646E-4,0.028220011022659686,1.720747387781157E-4,49.731458822007994,0.0609347341553842,14.966890503688411,0.22191413800643028,8.915840580977129,0.11869862080026963,9.803552416806722,8.126163591825144E-5,0.11649635360056525,0.002634543119541705,0.2999141224510762,2.7548581590045154E-4,0.05743064070686451,9.334644975181729E-5,0.006858696121862673,2.9638393958594225E-5,0.01357404417175033,8.316951383385298E-5,38.64257490042165,0.058166377975726956,33.60310665151691,0.08154847534153767,12.737769553674518,0.06459531493575499,9.620570604313803,5.255722918498883E-4,0.9068427369080855,0.01202322021053354,1.5407953512602748,0.0014645583916741262,0.06831396678501216,0.001331191001932646,0.011679712731683195,3.879916593876938E-5,0.03015050269849534,4.4953731838351423E-4,37.83272531414559,0.7008922774227915,5.12059948819777,1.5234448389930548,44.40825901769143,0.8368321943500295,9.610743548988637,2.8336068689320586E-4,0.09675123209895267,0.00507951573226496,1.2212956748614654,0.0014690879307538507,0.20984812723009627,2.5848927813964953E-4,0.21888692800511314,8.01717621099334E-5,0.019218629806878777,2.0243660131854342E-4,34.63377500502444,0.526971543055053,61.561379701393086,1.4715269811074025,40.0980758877749,0.5265061574872455,9.382138410325867,4.2738757601430883E-4,0.8384954043514821,9.830476658877509E-4,2.311106235282856,0.0074385694535609465,0.22092564091168715,2.5925209217338716E-4,0.12155143679917188,2.618999409180738E-4,0.019567276348581138,2.1087341221046253E-4,31.016189554119638,0.4192772205090767,47.17354155904022,1.0469986033261562,69.7922216173035,0.4432072625243403,9.591684541649581,0.0019947452633561884,0.21858775142312709,0.0037398350722875856,1.3790979553322766,0.016688659956496384,0.07504931502143894,0.0022356267938165387,0.19051194491472034,8.875894898592642E-4,0.03912896682760416,6.016107908453841E-4,33.965534410424,8.828677776009192,15.434229684798098,14.32464072930365,35.98737563876157,10.502816031032639,9.471009955221778,0.014382389388888,0.6447180514969961,0.1270904826749432,2.5419902353655566,0.010794490298355301,0.3457308561433086,0.0302438049384893,1.1698901620359052,0.0028731889297900714,0.10549896668761104,0.011713137252294356,39.65227325186545,10.496186889142718,29.310717835610742,30.257810035313803,21.625501416664754,12.275682421196903,293.0,2745.1666666666665,4.0,0.0,8.0,0.0,3.0,0.0,2
1,9.347438235309243,0.19557539393205492,1.6167130691992397,1.0124731560865439,2.3361244010661846,0.736074979053559,0.25781996679898783,0.04842148129833516,0.16144646992491676,0.043477480837991495,0.3489081761626195,0.031243219234267396,32.765902851167965,1.074826487938697,7.443868131268749,1.3731846669627525,30.97586759282739,0.7360255630295209,9.500211267840138,0.14092132701152418,1.9955912203070043,1.034092614643269,1.4453838721164682,0.13194092237450825,0.21463123168629075,0.013693433043838082,0.09200557472457008,0.00360033755979118,0.35675414283798484,0.03672585646759146,8.37276052770035,10.84286199523785,2.128274965681424,2.009502287406155,23.683472733471277,1.3658316362686664,3.1797859134430384,5.507996085666829,8.909827314029082,2.6628777919142914,0.6101698185631089,0.24766017769294735,0.22049975681835168,0.05680608134813696,0.1345455578362083,0.01528895277510679,0.8107275203595874,0.2491770204365739,17.82821481283857,60.84501463044659,98.42012622474965,203.8202504669322,53.837561338645976,10.747887281317588,3.1554702119901776,5.597272466583775,8.921209353768365,2.45234527012737,2.004251246575333,1.0850140311859449,0.4454300497849575,0.09337063932276407,0.1338432980116035,0.006503469151488599,0.7597861059064056,0.19935020613144927,12.252945848138623,103.77311051881536,22.592444799223,131.74599308104877,9.514441848562733,63.03479803857612,7.382149227416318,3.2438613559811036,0.5136831338039486,0.14671238503157802,5.994226837355788,11.328591319197995,0.2916738110222533,0.05289338252148669,0.8758368817923747,0.1931172975220742,0.14985992834975337,0.018508523531130618,29.2036516916686,83.82067957298368,64.08155805893365,2.092154124421154,75.13350529960506,148.22242715469616,9.270623494248364,1.5334797049159319,0.3243808406739604,0.057353639430074814,3.990277891871854,5.53056005577203,0.10118385076713209,0.005291901064131323,0.6475358436100226,0.09947100257065362,0.09675606611269676,0.007023373078593026,32.20958689694905,16.524264480684998,33.101536893054266,11.729446733306764,43.60875726141324,88.76848812686929,9.254849070343523,2.659849628357929,0.8094222710611947,0.6239075010304423,4.235166423928343,4.238637844924126,0.20906317070543312,0.03441816261151554,0.8830947443709106,0.27232327866484085,0.21817771744790862,0.027016119821129943,35.84482718831268,13.433469853990387,49.219010084373515,38.763554232244914,27.114061247577983,107.77527153364171,888.0,2745.1666666666665,4.0,0.0,4.0,0.0,3.0,0.0,2
2,9.703892307386873,4.926136771290554E-5,0.22447617170889733,1.1460475045863281E-4,1.5257497143350254,8.075315407255761E-5,0.24741903383758188,2.220889185154518E-5,0.026289337021375887,2.6535438269593224E-5,0.013325839795143915,2.1708493830326023E-5,45.56326793438822,0.04046575335836475,6.563258413451811,0.06894536150805561,7.371638608900882,0.06663864750205328,9.526243141342922,3.761149135075384E-5,0.4876526287906078,4.477153929296282E-4,1.9988196719417255,1.0444075940012308E-4,0.02466771267457397,5.72290401992808E-5,0.006145049721302943,1.4459753769484324E-5,0.024098557950054084,5.2831862390706545E-5,35.709110302161115,0.06610172167630517,26.64508819580078,0.06440001710967982,5.0780559929694915,0.0682908685698882,9.685855728486624,1.2186745718617712E-4,0.17379441923199437,5.742601122472823E-4,1.238982498316475,1.697659595403875E-4,0.05535543646190048,7.378078916649694E-5,0.005029740327001531,1.5773664167493067E-5,0.02111800559190197,2.738641710283189E-4,39.64236049757478,0.5715395363546152,14.772630169905351,2.1442895990579856,43.81812391755331,0.5979219632066535,9.437892176169717,1.7238353275243312E-4,1.9940617973633235,6.590980425966068E-4,1.008209174179899,2.8954498660344714E-4,0.198522895409916,8.255988752957538E-5,0.2144627625441683,6.490716840989743E-5,0.021294784478107415,1.8996194983000492E-4,36.803468398626336,0.5732679545544729,49.46402070272035,1.1416757000237847,37.62230899452504,0.6617988350643124,7.8687049802495626,3.515936119620657E-4,0.14420919914765912,1.8531576281859434E-4,5.792567943341165,4.4599321220523813E-4,0.22335372338308154,4.420596162023665E-5,0.11731075701298635,8.487542236649064E-5,0.01912166860896209,2.2879182169381664E-4,17.450991425066363,0.3726962082096719,38.794664541002135,0.851568108689468,83.88753893098779,0.41723424133807463,9.409143695515164,7.97466954558707E-4,0.061609944627100593,3.690893197155951E-4,2.3014095619897157,0.0022441560412908936,0.04022974590634225,1.988262349594448E-4,0.2022654253639569,9.404671297837919E-5,0.0377254915624363,4.3773000619893324E-4,38.46229110633471,9.596923916569752,12.262641507617676,11.550284144558974,34.335394759204505,11.032678480675395,8.707023557378442,0.0023814874675493892,0.8897783532327052,0.0013075539099027087,4.413195214877471,5.280941162048868E-4,0.16103429853586862,1.0369830731793249E-4,1.1997139671230843,1.3966292867995865E-4,0.017228618738220913,1.9669206423605332E-4,39.52094201356667,10.8816974652885,8.579028637781327,14.650156929225611,16.281400243221725,11.688868518865755,864.0,2745.1666666666665,9.0,0.0,8.0,0.0,3.0,0.0,2
3,9.877152018948813,24.92978223370826,4.134518523160265,11.919433613945873,2.6487772667636444,4.052918362196285,0.6736989394743613,0.3117017416060624,0.30477467443644796,0.05091666804227572,1.637001517015247,1.2339941443423983,49.921788884789905,62.17636604767308,20.68489247593432,112.29941027018116,23.846259480681866,18.27073005612418,9.66902860719196,21.98346642561779,3.6826590181904644,17.0958102361228,2.8771766242905628,3.128402055565676,0.6366326139091117,0.4333035168572102,0.4646495254401591,0.13567048151902444,1.694571433969624,1.535213732030451,44.16619920467145,110.21819054555112,15.112215994965306,208.3534142955903,36.439841433783265,59.37759665716183,8.907849525219827,12.435659006201995,5.815172415082626,32.36387106753109,1.6485527264345334,4.741988859629993,0.723069439266515,0.381375676604344,0.4135709839116638,0.08469755685384205,0.7570334337188641,0.2523800994832695,30.828727627327428,32.07518688524669,70.97011724229675,133.1101105601462,34.63670759042982,3.2401702594232162,9.816519963807163,23.51692713231607,3.738867260083474,28.651112390559174,2.2163628429156415,6.177412328012096,0.7182657015921537,0.5677511834471782,0.5946485859622346,0.1577387795193865,0.6622586500733185,0.18228467077825236,29.97677305653609,1.8648373679536816,10.669938968278426,58.37286917461159,59.431123807285374,16.75665640913177,9.766814490049583,17.76569093124085,1.42652324188336,2.181203903553897,1.1131665609411647,2.747843907440253,0.3117709551160918,0.05512491929032724,0.4210751989665982,0.15576202716856796,0.3064076123342371,0.035721930800937024,44.18196280885138,8.348973284747236,17.258741579003097,16.592848894223533,34.09504189675684,18.62848070913543,9.76494040146717,11.888357766138668,0.8803436087839336,0.8312591370439997,0.8874545472903044,0.9549044926682309,0.38625761414286347,0.052623666028923745,0.29405063562074585,0.039769617049113394,0.13704255265981288,0.019780204997243353,37.08792626396727,16.493727638425597,10.609824278407334,16.756333000509184,16.05816542641234,20.53353827206599,8.912473038415223,10.423988054633009,0.8369300043549985,0.17980902586806996,4.258057934144584,1.9698043151751885,0.19036105033182293,0.0200015341704677,1.1508579784335353,0.11368704988254075,0.11631714872686573,0.00838422865007922,46.723754292693584,12.313729305653736,3.4584595747086224,8.19135800573458,28.445365826727937,18.009405720777192,596.0,2745.1666666666665,1.0,0.0,2.0,0.0,2.0,0.0,2
4,10.80468779160173,26.53773945180134,5.563878942744096,18.4012477896177,4.538185473552066,10.163105708890637,0.8069155479199897,0.2132941068002476,0.5856355263784693,0.1729241733408232,1.7698703529673387,1.5271137190876658,32.34460568296316,62.451547156095856,15.822822449615646,83.78307558292732,5.875287406928631,9.048567119817381,10.215072579651,40.02425888871345,5.195734965558374,23.331944690372364,4.198463078691156,9.198391003757893,0.7805743644976196,0.30511774099959776,1.00503428712055,0.41222499062225343,2.442224162306575,2.380702895564408,28.673912261731058,142.72132466217334,36.91511401813992,127.13587430523748,18.939521643749917,157.0815631790953,9.340294637732743,8.78212649777735,5.08550238358217,11.510307151971265,2.9557314813960325,4.202531993973958,0.5744539906389147,0.18228098783512017,0.3101787688172016,0.076534636351349,1.0326851123219707,0.8549400652300329,22.79412354421879,27.50302207064049,38.53085261813843,46.827645212138094,44.54144711784237,49.809108665767084,8.176451922780242,11.76675056382992,6.818031268904387,36.97628725415355,2.5893247710072655,4.44606672116397,0.7216505737941794,0.36869948321679197,0.42348128832356996,0.08720259989954028,1.1233014850664977,0.9046100204965551,27.80294773460093,30.184682306885897,34.7200145563368,66.93791050614706,39.310902137124074,205.80452041875975,9.61865098436893,9.709522982361399,1.508328874363919,0.8894636950944295,1.431008958345207,1.1618358487329024,0.3339878062914429,0.055454497282543966,0.32924092319300036,0.06841697110752247,0.23845484449646503,0.027945187353199837,20.6887555412166,5.9255036759263575,38.85435718726058,39.61903126811257,50.61772670008201,1.6872546917829216,9.703920335400829,6.802173459031911,0.9037319007072371,0.33048892784670425,0.690152155495897,0.5054799498619855,0.24482736504147568,0.04091097895626109,0.3301556064870764,0.04779324727237955,0.14954620963604884,0.014801488133222431,19.690531409247804,14.574971439684692,8.552881423486859,23.500802469090317,33.341070470230356,11.489170006220661,9.75192520236442,8.561311004345471,1.2695632969882746,0.5027902963005638,1.2638251253233923,0.5285936938923537,0.14822061829081123,0.013698690220967973,1.1143427071321077,0.12643968052786556,0.11355719295168265,0.005826033012856954,25.835933384974357,10.054237015809779,5.0526305582858,14.06441573487394,24.077732623611364,21.570579462466252,1403.0,2745.1666666666665,8.0,0.0,2.0,0.0,3.0,0.0,2
5,9.739383831256774,5.90981471367899E-4,0.12531337214395313,0.005039077402088923,1.292032530394996,0.002983228620647124,0.21582148742021584,2.070765564866785E-4,0.03830990241130632,1.4405351003754957E-4,0.025317945139959636,4.653063124520788E-5,59.4072023949972,0.06331612132965907,7.654502354017118,0.11446334827063404,0.6550584608609448,0.1191208906738255,9.64008447600574,8.674033287786802E-4,0.41099565358060164,0.003336952734737591,1.5831651295103677,0.005047119013313779,0.02690293896579888,1.0359928788784469E-4,0.016298481683628692,8.800938390915771E-5,0.008784646310143616,6.222670175482749E-5,56.60743099305688,0.06645552897827867,15.193679309472806,0.14815007335209657,0.3318749343658366,0.048859476251024214,9.725766746009269,0.00101780404330827,0.9001169528176145,0.009791019026443536,0.3663442988039517,0.002761271297354033,0.027575439116356768,3.976387390627979E-4,0.037368682974086305,1.2944169862676524E-4,0.03588992068629212,5.76403966792958E-4,41.67226965834455,0.7345024239689648,4.602928189242759,1.1036443705313501,45.84060082784513,1.2111126992368737,9.581359479485489,0.0019316851279053292,1.4009739625744704,0.007684864899132429,0.6735714325090734,0.004546368700522927,0.21889560914984563,8.366375627073079E-4,0.1357357441561251,9.397577340714949E-5,0.01915336588238616,3.0953896443609825E-4,42.18685278078405,0.887689896245423,49.43530545583585,1.4099601359506997,27.912702630205853,0.8385339907335748,9.675714841703089,0.0016827115792763532,0.605285059388091,0.0017385233491477056,0.2304978054925436,0.009599230684016245,0.2049844388554736,2.1997703537469983E-4,0.13405006079048645,4.354374910211192E-4,0.019840957277465793,1.8901175585070204E-4,38.23680831164849,0.3463304430285937,48.939107522731874,0.9609537293653361,59.0075611719271,0.8463814596473411,9.723176299071893,0.0020115462226069887,0.2136738351432652,0.004711243757072622,0.3641337136760717,0.005778475296142761,0.12659426226575926,0.0010912569548988374,0.20734796945641681,4.896336926883131E-4,0.0268884756380164,3.6461427508412505E-4,32.64660100239079,7.8408271886133365,16.663778454792208,12.522141655606532,43.024422564157625,12.582850054572411,9.698734120624822,0.027947137768817652,0.19673278622283805,0.017572488484862862,1.2042051190510392,0.7382337087539655,0.12944647547130178,8.018587862417363E-4,0.9401054756670464,0.017364518980167394,0.029965975567659082,4.228942098807877E-4,35.561132070494864,13.19897014801374,10.07204581324647,13.833391412654182,40.82039134095355,21.830194283485756,81.5,2255.0,3.0,0.0,6.0,0.0,3.0,0.0,2
6,11.734976006270443,29.751415925645183,3.2743058439385333,29.667336850369455,3.195606145153635,3.4196062663891325,0.9019055942527548,0.5408670792194701,0.7342089467002748,0.44791267616713976,2.1948981676147787,2.364781432892276,43.23400217130039,86.49430724012016,23.623999907496227,173.74117453867686,7.522889671137155,12.074221149754019,12.118750994376715,32.32744823029105,5.015077124709953,58.27943547922398,3.2234780876511366,2.3580783352756844,0.9532986586425937,0.5975218430340885,0.6512818950149122,0.32805739911451215,2.592178880345097,3.7343597584947754,42.011491311847834,66.14808386779268,29.212604068013846,246.41790858632396,6.596197040082671,14.658058677108324,10.232520379414217,11.159604920792066,3.421799274593674,18.945531875596956,2.0296826676481006,4.498040183529769,0.9571825263800501,0.5497107424967183,0.5275864748873372,0.1919803303887256,1.2453406454161715,0.5374863376817997,39.22574588080138,16.883848642765678,12.81033321095435,103.03515303031696,50.169766062531025,33.01500974322573,9.461227788450968,6.602994753853224,5.292078771679893,30.864723495309665,2.8814349600952633,8.771619941928728,0.864326400905513,0.9728680811185794,0.4874520897042027,0.17175629855841013,1.3152547621815234,0.4211534444748196,39.22614756210074,2.5475962317126326,42.8995556172745,136.3975003556691,42.439887852958556,14.583611506006463,9.860949682267332,5.38199255283097,1.8898854267259915,2.191978254393132,1.791166974138983,1.9248513936021776,0.5296580793377197,0.09718680051011999,0.2735408563912944,0.05587223699554406,0.29225791219417047,0.05524682752868616,38.44210326474016,0.5771952916171652,40.63823923353332,5.56532906824884,53.66602753275666,1.1529553284694916,10.003930579232906,6.7592681650481055,0.7416370499297689,0.389370267011282,0.8389160205450589,0.5065498845057927,0.2896193266455187,0.0329909834175684,0.2302586023029434,0.024309523779379873,0.09876050301368422,0.004439627969481106,31.170795546052204,11.66490082475966,15.368838194325484,17.540755082010964,42.37859612143501,11.018331182019518,9.74856831619094,2.4266373859844443,0.7393795014744964,0.3147045516771826,2.3559064080537353,0.7829008242283186,0.13912356919120195,0.008530863906996762,1.1581085367097381,0.07773952208044609,0.18208013872811518,0.012960660054766808,38.98267370824656,9.790030512373939,15.698119060769265,15.574635797391657,26.71924169550943,9.825136538137382,1119.0,2745.1666666666665,3.0,0.0,5.0,0.0,1.0,0.0,2
7,10.400332520309403,28.164170282061715,5.556691938725645,59.74689080443887,2.5855588703840784,2.5616549125225494,0.7508955800002801,0.290907112266488,0.4931858455896048,0.2109766021906232,1.5799564539315951,2.2510669449433753,15.242881338899307,52.97202049656785,8.319729907911539,19.402471291203074,11.758593983989394,34.08620068718826,11.026801345098084,18.879178149466874,4.695376065820816,70.37149937039388,3.168228072088562,4.4316374383250645,0.6889864499926713,0.4610236063576861,0.47123605001509417,0.14152852874909572,1.3595126120793923,2.017136063315022,20.86529325516843,8.007575958127331,10.693364675532388,30.03174184488037,13.272447061308181,21.62522429166555,9.841520450391823,9.71917406251854,2.390101010696345,6.111732616707163,1.5760626411187664,2.01642710805199,0.8136146447344076,0.5648595062951133,0.36401727109699183,0.08952070671408456,1.4884301218646707,0.7448425953622155,18.492175723966312,13.906430671408266,31.448078176593253,71.13991570895206,53.15976820466268,116.62714558647967,9.546578855145702,7.712550096309676,4.474248949829386,6.500618160519279,2.2859754955591582,1.3728719447696762,0.898186757234414,0.691564613325895,0.4627554650567678,0.056582481789355654,1.515089404434789,0.6528154321728941,12.174119235402312,8.74989736619545,28.77997738221732,60.24396325411003,34.14287566084888,151.88383898271175,9.719041700521228,3.157773641379846,1.2228275629352825,0.8127044452861961,1.5575879388977645,1.6108041066358305,0.24745204379313845,0.03823057665852258,0.2983029996513168,0.030857264855593085,0.3592433254105857,0.032246317773861485,17.87744954672966,4.3961784702233855,53.013048308988964,58.12131300539286,47.872644961868204,48.03595503993465,9.727628238951961,3.9737231893347533,0.9356201214311279,0.6739076862703212,1.500191864344029,0.733203833123062,0.23386508308978782,0.016807256422902008,0.29708694459906476,0.03387025621713896,0.1453051709747508,0.008006083605585478,18.29859274658709,12.023161765885922,25.173320280254217,16.712155558233473,37.16992459376214,28.669157164734315,9.629686721780683,3.920228433413532,1.033796714196877,0.9353142546290933,2.126480962690069,0.5358765356980951,0.20642143148450598,0.01333971937235401,1.1637368702756765,0.030503767635240934,0.18114772370054247,0.014799916017778672,25.96473849807655,16.783317935993185,31.513521247147196,26.500456201701247,25.588875422820202,32.765657646422476,1314.0,2745.1666666666665,3.0,0.0,1.0,0.0,1.0,0.0,2
8,11.920795834525514,16.60128587458678,5.248535741671137,28.65106406920921,2.5561931100956974,4.181720330268026,0.7121100997042878,0.2628388894518215,0.3951707903041057,0.05274233525225755,2.1227578768089868,2.472272777745048,18.03940523263499,67.56707826975851,5.668633143381519,25.7437247570706,20.084247302943172,77.38475120146893,11.248787402118767,28.168537108055684,3.5444739915852472,20.585157471157736,2.598373791758609,5.404228954099903,0.6464182611983218,0.3493036317064045,0.39410744299044453,0.15444490917599257,2.224242766602582,2.4211547210212876,13.441664665443463,25.090567827555294,13.369765437768967,61.216345739588114,10.867644822729227,15.499478940224316,9.793943542143259,10.569761680666659,4.34639630339093,13.296457050390513,2.36370786316487,2.28346736836478,0.7028953397809512,0.3155534475461876,0.3505964978773003,0.06274914270411466,0.5411930989861332,0.14109768567824335,15.508085956889621,3.6934268523874896,51.771366646276654,52.02448672151199,44.11881470021622,153.58846708519684,10.024156584924096,15.253016777045609,4.857076125435572,23.811828309190524,2.0227228658098872,2.1242279447744603,0.7453713167139756,0.6320395638721732,0.47062665344478344,0.11097796937532402,1.0306495083735459,0.5584010486720075,11.340160970529798,3.959837784588106,25.17559969622786,169.00736427580722,46.357615486692985,79.95534708895019,10.21241897509243,8.620828507521278,1.0950796984558029,0.8919254247006853,1.3815072295564685,1.3128225365859378,0.24749317146498112,0.03443617274222419,0.23949735866313576,0.05401754469961845,0.39144168006104596,0.08323819650374341,19.084599573967864,1.6811945250954046,34.250089550545205,60.77953922136782,39.413642609317,44.34626540553969,10.22867118719533,9.869091560421985,1.0462498599045926,0.5046074618999399,1.5106982055753058,0.7404310449098939,0.2693337943058883,0.04917072356805607,0.25305088343309723,0.03136735097656228,0.12509398344738246,0.00895067940226682,19.305915210787106,13.57878421384516,6.518647412239518,18.275438438562578,22.264039519083433,26.409858098253252,8.88513399355978,4.678566174645964,0.9473879122900781,0.7044765413893184,5.150787900165958,2.315429046225281,0.21793666286959998,0.03152786012160551,1.2378596136583149,0.11149058186976468,0.23339083915813028,0.026461072958425008,20.707679008252054,23.76022625362456,8.54163638498243,29.08183443641767,4.024112089542229,8.832489366350954,1194.0,2745.1666666666665,6.0,0.0,2.0,0.0,2.0,0.0,2
9,9.350354083993818,0.09527441896861287,0.9513238303335023,0.41612163183289247,2.7930131050763207,0.35289595111444555,0.28046680715202627,0.0027995427054305854,0.11038151336319292,0.0026827492846617494,0.1666159393259894,0.0074248776767374325,54.71802524967088,3.8441987321292928,7.018906227421036,22.093730772078462,9.715009046522951,9.452018956917895,9.490071702398648,0.03315654740721087,0.33546310463452,0.08441410978054065,2.124422328248208,0.0798930015335237,0.0645416077246982,0.0018788344042232437,0.03935882884067437,0.0012105142581994518,0.07693143083793703,0.003254354624125589,53.96480768951922,0.31392988045642817,19.755714500806608,1.8816460439408307,4.8887956827384995,1.3179898552949136,8.738171292931995,0.1918155541016655,3.9585456117082036,1.5640554804633442,1.2184377396633612,0.14905763636611674,0.16635255843467847,0.008765650630129285,0.06663213817027104,0.002468628802310322,0.3246969830534853,0.022384894777826916,44.466995660771325,1.039890429392883,43.02125059306951,86.38686676560259,43.879714628609506,3.8237369081476245,8.005856184669621,0.3695851557317514,5.364293427757136,1.1856832929352088,0.7869295928812488,0.11515725790841023,0.21650370712602995,0.020663068438365895,0.2608510995932047,0.004985547073341559,0.27975897261234856,0.022022171618400286,41.76974752858199,2.547841485961269,19.588312243888392,65.72324820382642,35.45709572049136,1.2509991811360601,6.649793071538539,8.679454312125932,0.8354621950269404,0.5462526617179481,6.528544396985302,4.689650028104429,0.19801270648340555,0.024900181722019077,1.0957798776010987,0.9748921163021286,0.28465718249417327,0.021186786918522906,48.408354572169685,233.73294323520375,47.29952518189151,42.25519494361573,66.01755376151912,311.42197852835017,3.616531573607746,9.54243603317617,3.5164344341221434,3.121408009389373,7.659553969103987,4.926130097473717,0.3390032663138697,0.022113712361658242,0.783624853704701,0.27332409243906447,0.15399015421634385,0.00794768001873134,15.730301252715496,64.45051079189362,32.602796470262724,63.79997525419829,68.68190839145724,44.635236619402356,9.071121845456117,2.229425141075546,1.5107354165070295,0.8192107441849842,3.7013041681316756,2.757258814141573,0.39461245256069616,0.031384246162859,0.521983108703222,0.19470166101611439,0.3259928725069409,0.039017780080707706,31.35122954120952,87.25861919210706,25.277028895544085,153.97389627201088,41.9241939723821,201.4058488357403,1187.0,2745.1666666666665,9.0,0.0,6.0,0.0,2.0,0.0,2
10,1.2642847878999304,3.567246616988229,9.050912564630666,7.224836566384451,2.984214632856809,3.592866046301645,0.6247810576469972,0.32879618336600414,0.17418076807359048,0.06541583249173859,0.4310507961312175,0.597004506063388,28.34055269357249,7.753549806019492,50.83920378711342,33.86353868557088,12.938192821997964,72.75333471664098,1.3742578327655792,1.8009558749190342,8.941070928099405,17.324015529456037,2.891923188244749,1.451732203130419,0.6003003858585548,0.4385767530122323,0.20225064612626617,0.05071321794157516,0.47540331018821064,0.7198455782225041,28.90389604726549,11.088345483486494,38.02706767972661,13.729847656830598,12.799702052088731,16.230186137591847,1.3221411100274465,1.4675689122604043,9.366235988574791,3.386944460830147,1.5409761746240347,1.6149391747324355,0.6555736879766687,0.3029791447583277,0.2660385261647383,0.12471458299117036,0.488791108207957,0.3823112515415445,10.040690919641632,16.743343860396276,116.26569787968589,5.0796255838502855,42.17694452190926,60.5458005887557,1.4860024662863318,2.5741288664134987,9.463605143088662,6.822390617816127,1.946145744829629,4.582020627311085,0.633719641019369,0.3558949342575505,0.4443328859932844,0.1511423638525722,0.35975298155819513,0.15836915010110464,11.27665067427066,21.935052603038308,27.47850386477307,9.595276374423383,41.44735387939116,170.15795165700493,0.6835964630918773,0.12905425082412145,1.896886291996015,3.4281581774388106,9.372366575904973,0.8811757790685762,0.46594756999559883,0.15379155179815315,0.31650168692322644,0.12734561476236553,0.0826701102797611,0.007497563525325557,19.03478005973015,6.950169352922777,46.531918056762024,120.78126633444768,6.7510970869610984,3.9909431312251824,1.7697309301703015,0.8717130258236759,2.161532398107467,5.719165252039179,9.117876840559816,2.0622921699288215,0.4808170115015629,0.26593863439195053,0.6162244111044816,0.2687916943944939,0.11167075156584094,0.014121722081445178,11.595725254047641,98.56537925506036,15.9084066257951,88.49441208968173,10.012499129739256,19.061575432678232,4.34275790273073,13.426655744146549,2.410485554676894,3.4822687193309814,8.704056816206453,5.575097759600286,0.40685654585944353,0.10527648909758987,0.9122774033853527,0.1827990170473463,0.24059026518216595,0.05494739498440204,18.334931397635632,57.49361929732825,29.893436574145575,65.82682512573476,20.34009235570444,62.495330173037466,806.0,2745.1666666666665,6.0,0.0,3.0,0.0,1.0,0.0,2
11,10.540214773946705,51.93350996454882,3.0901764992789174,30.485809236665823,2.803957207509167,23.75891519520127,0.6285244918123495,0.353186534183435,0.6590468535525853,0.28045888462464724,1.1682529622580835,0.8411341176600519,8.235544410035097,56.692382838056204,12.61294857416693,16.305472976932663,8.674033299006151,9.230297495160906,9.661498401241984,44.675990774448664,5.368463387085094,67.53312287301452,2.612445643161377,12.588316575596332,0.5412938873336949,0.26136692425279373,0.431368761420641,0.10478029870442598,1.1683970238222001,1.0927960648827373,14.691717221592013,4.72060348616969,10.35892992717785,96.37002960303738,18.79918000579539,11.033354155933258,9.982030685435342,8.695573772757447,3.2637331638258793,11.800611973408586,2.864407837720207,9.565346279272635,0.49067613879509414,0.21781975887486027,0.42156167347009876,0.0862430511872645,1.2723404203248287,0.5299491665277323,20.93411590512945,17.514023505184884,22.16488621906681,96.28308210966111,63.60286866498915,54.181718392224404,9.015916869126631,20.302898107748316,4.682570222250664,26.78722226761249,2.1602312862584934,5.352448445144932,0.8749698646397469,0.5385605462511414,0.38572078318275943,0.18471681224274988,1.3951117457533821,0.4643883459244004,15.674650424093173,62.39845895771811,28.1493598242491,79.75908326827658,22.02288055419922,12.908786507666541,9.902344740556748,7.134349601408234,1.8154728375864086,1.5079041321801185,0.8578905857204157,0.4409404244818811,0.18390765263733083,0.03238487726072665,0.3938077360041728,0.0893996307452724,0.6870493052980107,0.23172243310878035,19.685792591031742,10.965616960682041,57.73015592374854,32.16908473657673,52.873845896009584,18.1881310610494,9.955726383799348,8.488140250088621,1.5717901475425264,0.7355741357503531,2.3023475018324775,2.5704594281766875,0.42344388375907765,0.09441552814965452,0.24703422572736458,0.03838095917940728,0.41266662486473826,0.05852389989820836,17.76543908356303,15.561846257449863,27.579896178693403,24.206619045425395,45.166963882867805,18.373927293693317,9.789211004478497,7.273748133896774,2.5486225233675697,6.032937577075813,2.3273027351856728,3.206440233582947,0.301999867595401,0.03516372266566293,0.8222123084805947,0.19866410778371185,0.47331519469166,0.09434245665603339,31.927488769615554,16.161954511275407,43.790455359780324,19.262613426940085,23.702809782976605,54.07796053384997,1663.0,2745.1666666666665,5.0,0.0,1.0,0.0,1.0,0.0,2
12,5.573623846771288,27.620119020619,8.495543074397915,92.36225152579014,6.798946969087611,102.43859795230209,2.2640509987301423,5.232110190212131,0.8233007736727904,0.3526245298973186,0.8790658182510849,0.598740364029984,25.78287275324869,54.72214370158315,54.005556391089,97.37035391948115,21.830591096815482,216.712503657914,7.936192418224801,73.1203090628517,7.058236015847375,28.916321588365474,7.037463092240016,37.4928838985219,1.7894897610360747,3.2030415933871392,1.1500056588209302,0.971806960706205,1.437279617826799,1.343657549804328,36.93856016443579,438.5873689799794,42.96419640058312,484.543997858551,23.85708583354209,129.91304008354697,5.216742223270176,19.158229324239986,6.537775811188705,17.217687627696286,6.175597279317142,58.23272348697776,2.4989913818477882,13.529228378602577,0.6922100805613156,0.3066513398898992,1.334720419956505,1.5835624239763404,33.528456961911026,161.01282355782402,15.966899069303965,67.94626605558153,71.70213591854875,325.21687939334913,8.202667132596284,73.63740172897037,7.047968665950865,56.98305534618009,6.077923433227434,15.960501221243051,1.2996024977853484,1.711626892857178,1.4216936001945184,2.4601348213113474,1.3177368907262417,1.3782907338395074,30.58148651755317,44.87613699132755,19.35050946902175,58.84533600579729,31.395726195356463,451.11176470265553,4.585345912045537,17.9152836362827,4.960947592223053,23.82582027137125,9.11875595140029,27.191161990137733,1.7686587548827577,1.9204157507311561,2.219424249066647,2.842337003764954,0.9016698485340676,0.9159692635151314,18.964553880622322,210.6550857152513,61.455556163471705,264.41196331354155,84.99698822274392,272.45551081649256,3.3584218411526296,10.281179364997634,2.7693624942259896,7.189231673031596,9.74598526501853,31.215932688693893,1.0247414872778364,0.6776700231859204,1.8306350760568366,1.8717262029652317,0.46961875692309324,0.15586899318359462,22.700655642135366,93.75919739880344,19.339439966566655,40.07231515139859,55.06054747697398,364.2797658182638,6.541339936480955,27.428574921605236,7.756165695001078,29.517429850949938,6.579443654755532,32.66774704619597,1.1537471169050144,1.316487590972815,2.1352495581776068,4.764321475392,0.7573023871049152,0.4594002363729628,31.336864092073387,46.7546503185353,51.974049531293836,469.04749572403205,21.060513792116996,113.31766813586741,1077.0,2745.1666666666665,2.0,0.0,2.0,0.0,3.0,0.0,1
13,7.414408560121916,52.2278738487272,10.361388963395061,85.95098250586314,5.1196437535282655,28.364318203827334,1.8143487183675582,2.5765041053942883,0.9320204566819439,0.4640398622832488,1.843393380227576,3.341559614141856,27.00648528765578,464.36791995004137,31.406924946779046,234.81626452037847,10.070647277642886,80.80349449103026,12.147205575888986,130.32776989530703,9.273955198797237,84.8881357185715,5.161688467415657,17.291424786195417,1.718264836375473,1.4041507841215215,1.2810308470258724,0.7537763230678303,2.1309727942210865,2.069401289643828,23.050698948828554,456.2002755626607,54.90347110895821,173.830107954554,11.588250737122738,63.04854116087798,9.144505515324147,134.2861559984878,7.867763281156674,68.24397186998664,4.864787439515979,42.60134236244502,1.442873271213052,0.8666441662330895,1.0538721666028157,0.5135884851486514,1.8875699233860601,2.1281709763530148,28.833065111992767,193.2996937953688,62.02622508195882,1286.1818207995793,41.207989392359615,139.42265906045824,9.72024461525127,122.89643433713664,8.470467944809581,161.03561348927056,6.7773301295462725,71.17146239975759,1.7654858167072274,2.5268854093633455,1.1059055692871302,1.1282090249187662,1.6064814495653408,1.8644232404764618,37.454877550430716,173.61697466568947,53.884324163363125,854.6676021352016,37.62627437233266,116.70243509798733,5.938338405354905,53.508258164253824,3.2583372279575857,11.373263833119061,8.971720642826998,78.58358737050918,1.4630155694974556,2.0427142836006933,1.4147587174354173,2.068349562402914,0.770343112731957,0.7224296208996992,18.138931936321995,133.78913747631125,22.255128146205816,86.5062682405716,85.97318208810374,95.86428250070233,5.739354091886822,46.48050880649013,3.3414620927416654,12.26898356128662,9.086787376388166,136.91190296154215,1.2257442407577572,1.3151286125944326,1.3646800998824735,0.9173511395010538,0.5359047972558592,0.33668424435990907,22.064308186920968,147.42302059663558,7.495714634620888,20.443534160704345,51.10725556684462,175.5823028829553,9.178064151198825,102.02150471291425,3.962415259177102,27.718953667401543,10.016823888812935,177.11910801114317,1.226484380484924,2.1031489614317485,2.4772322883839766,7.913350986880348,0.9484067062090938,0.6777215879926253,33.43356435997051,22.60918601642641,14.761713269871573,47.429027741884774,13.18155388616396,125.3004536235572,1442.0,2745.1666666666665,10.0,0.0,2.0,0.0,1.0,0.0,1
14,5.472901793968612,9.441641203231875,7.350284231878117,68.49512964696196,3.7848443247027985,30.699093344220127,1.9438803963239681,5.467149787943548,0.9147584067004121,0.34715068057214277,1.8201253774128237,1.9813352224714964,16.616165064975043,242.90649399335214,48.51931679446394,61.26990542571941,22.699672762201637,128.93745563432222,5.270519219421221,19.80457617256702,7.530468565653701,85.16778132033049,8.886673677609771,90.96515678630387,1.9062974492592213,4.2202097872855,1.3502117461429712,1.4789291566371532,1.314813353630678,1.501611642522338,24.355710445846643,100.66488359143126,34.11216832919674,133.1549409490063,29.120094601949933,734.5076631284163,5.782459280520513,14.093483880902031,6.908323997539052,60.47235620666637,2.8215581749704826,8.825013637502614,0.9882954951100442,0.44310242849229703,1.134662291271746,0.9442501623492601,1.976607491812818,1.2201471878869645,27.879523289796396,250.71260038424884,100.20621321873112,171.056908990098,28.125476784469015,36.85713006923601,7.14362440935403,23.360437573396165,6.280997390514085,49.48878422933783,6.473768573686563,117.47000564925513,1.4389917763613822,1.7651436304098262,1.3788741205443336,2.705589725214446,1.9024216582871927,1.492076034172065,37.892855059046774,314.0946059374388,28.758211908851703,302.17769510072316,65.01620426494114,284.49760278834947,6.361931596507025,22.009195420957468,2.837526526106573,17.13725050113565,7.652533500892681,19.898723664792364,0.93295454215104,1.1733099450323885,1.6512579055636791,1.5602339553673374,0.8151255257019917,0.7348381111945511,22.48544618487358,354.80624549255396,28.76071388813672,59.74692534215171,19.979152265009958,161.62704557069867,5.935345497332225,32.26469852633202,3.1744873007316947,14.749471629315405,8.174690415187435,15.380563665499373,0.94338166670493,1.2424249209921798,1.5319741589161284,2.2607349535672063,0.48758340301699626,0.3383968915288248,19.88511143896461,218.97453301994955,10.91896502194072,72.13463506156262,21.97475072213073,222.70785978090578,10.72283584217011,112.94968889300604,6.491092932076086,45.27671609670996,9.088798893625894,86.32002160667027,1.3936371634976723,3.182894550999985,2.4691945345485737,6.320323481611399,0.9260544878445056,1.1738871078156223,22.656193120044897,99.93916401012872,28.613266087368707,767.5589527572974,28.400375061107603,83.42491389650019,1374.0,2745.1666666666665,2.0,0.0,7.0,0.0,1.0,0.0,1
15,6.284718956571917,10.783798971213503,5.264599168168906,15.838166648799342,5.611649390371794,33.30282955365532,0.7110683901823327,0.6064310127204975,1.4595841553309181,1.8091820445637288,1.6357603573641684,1.0496823439440055,23.650911802703835,180.16157822600974,32.9403412539656,110.68456881720688,30.15074142961871,98.1612082853346,7.1710560383553,19.7884630195007,6.186373479501602,43.21303827163614,2.763841083939625,9.068397009087004,0.81900381664723,0.6354800604852189,0.5135113822517515,0.2706566584065226,2.474741864374463,3.079536608963091,25.74923478470323,245.63640753331788,30.142674141496585,101.80985626442539,7.306139047381093,84.90455993833918,8.246232120026912,32.18896244771272,5.600332115565874,33.97278645653536,3.7467092145337255,20.982429908382226,1.2014190478517948,1.2227212092632667,0.9230049948120562,0.4033861061676812,1.922982835226296,1.5780553769290537,49.202205394513044,142.97669114236734,60.96136549428023,972.2439038349474,55.34563887580324,94.36413784561937,8.864410418075463,22.90622579817471,4.19015265778942,4.25028847592094,1.8840193850646254,4.808566274595201,0.9607990561361882,0.5321862600996371,0.5502128032298542,0.38416806523671754,1.779263238221901,1.7521244151748594,53.55887039985446,115.23457247245246,22.80399791509407,121.45512743003216,40.35796566957927,33.370430354041616,3.7298584854364067,37.58493915047844,1.6711919983972419,4.080621840125246,9.068115350867503,13.048191564474683,0.5513193210257598,0.19520094232085797,1.7024486180824532,2.3003389517384605,0.2964441826083383,0.055653613173334136,22.879577362734967,209.30032435151062,53.855785896764935,45.31804269983109,15.39027721068477,211.23903684626487,3.118025626112496,20.753586496971128,1.5817019331322992,6.207059929184572,10.137399503456953,18.422658303083647,0.27436724252798156,0.09410623157947157,1.3782799729552553,2.7133898003167136,0.2821245543055432,0.1296416935221671,26.59424937232423,62.23750683511946,16.54744337672028,22.294643488859787,13.72215631032023,185.59192062748957,8.240385943766457,60.03917656032654,3.6735743454333334,9.845987041230257,7.200137194863506,49.866669341924265,0.45532197750672615,0.0952643162184762,2.2351590355456863,1.0147489482723155,0.683306824012006,0.38061928089234737,24.790083970812802,138.54448716022074,27.1429838633669,46.71867408220871,19.435824306959606,96.16147305731617,1309.0,2745.1666666666665,3.0,0.0,4.0,0.0,3.0,0.0,1
16,7.391662706080721,39.66068882660569,8.082355125732617,99.39326129439542,10.142042802183667,114.39447991634428,2.519754394590443,3.918440896234631,1.1218378842468708,0.8497038321358545,1.608783128973642,2.4893653611590905,40.6336553794903,30.779340340687007,22.32888275047363,199.41111674537655,34.86834623734595,337.4905447821575,9.132261173048402,92.1648800764723,7.13970632756062,93.3553761048957,11.232410123952516,142.90139482394054,1.7649772343179468,5.052960285102006,1.3570089532263083,1.89679253585716,1.82787558889706,3.5501379338641565,33.20565267952766,323.1214630068071,14.973537905769453,141.2709262789621,49.17134506794629,394.0090588283343,7.655716559700462,37.094271216874695,6.501640106330096,46.890816117624176,6.737651848043855,27.049504060293692,2.0756196031110226,2.69463989899311,1.3843219662882718,1.8933356936166308,1.2190909555428842,1.0416070285402048,31.704064205865176,211.68210979782714,68.61005768328081,170.10499346213277,19.53495515800642,358.7267398152568,7.011534204804313,91.1651929185664,6.875857307323517,72.50157506672383,9.891299513616286,108.49555723296176,1.3408954146920153,2.8355958261900724,1.2580852166074843,3.1251673727430247,1.5029898127335128,2.9856501283055845,14.183822758948605,172.73791560582802,14.784460927076761,95.62169327517836,84.14090410517066,381.33730877653517,4.742324995206288,15.98406112706802,7.81460950699074,39.1198882428186,4.915985764143216,32.392797132387166,1.9823629240343317,4.256683204020709,1.3378225245091098,1.871642685056666,0.7446024539360766,1.0244133656200913,29.46301058774495,155.91916260716732,31.70275179572527,157.18587679287478,59.90959759706951,228.69320367821408,6.664193069582898,78.41483116585589,6.799868901821049,30.78043696146368,5.695019989012025,59.75282678196428,1.640480385920887,1.744627989201013,1.5039276247535374,2.0141573332152314,1.0067312287160926,1.4128035520771152,25.398044802207316,103.13597531493701,20.041247748867583,96.06570011735093,45.54563607168461,258.0554643261138,8.32119759001373,68.51965376534716,5.499332061953307,15.161482188015738,4.303746831721693,25.7982100432685,1.3736156882378607,0.9716624531140916,1.9715498990446165,2.060067121380986,0.7871253744998782,1.326505877954678,35.67636585762487,26.954606689417428,15.912419645249514,69.32833740528525,17.19511569830594,77.12222791389249,1293.0,2745.1666666666665,8.0,0.0,2.0,0.0,3.0,0.0,1
17,6.173263411372076,17.702336323646787,3.8925122670129517,7.089392112828941,6.162499896039702,31.255598555243555,0.7084144030990933,0.5735210302424509,1.9079857872649821,2.6408139769279595,1.5768377395920476,1.157804154936124,32.35202059297931,120.49612096630446,13.079881473274604,93.16052034042643,30.951032448868727,86.33610409833746,8.413268580950426,16.745467890389868,5.633571720131524,40.42988060326863,3.03834454332432,8.614997549196659,1.0431891908015005,0.7789450916857855,0.529841807079167,0.3314943253263896,2.8545568740170304,2.8973492367615594,32.75743260584483,174.20812240647604,21.019414581975884,107.28277983735748,18.91847004943131,19.54598754027348,8.25150484814005,57.882561994654516,7.747387090111306,44.8645225044924,4.273107677286501,19.765839974536732,1.711408428642254,2.8370325886045595,0.9095151500431666,0.6829336526433243,1.6853835478776202,1.8603744543980794,42.2196139551658,116.5215791331947,44.51340706440625,1196.72628606096,67.49552812102091,106.61028768748812,9.735213521600429,34.96879831220484,4.3631375016366745,8.231623646709377,2.0977689446932866,2.5843791000120864,1.2091526022304404,1.3240531192015332,0.4961566355063976,0.18394888181254787,1.42320736886635,1.5436992369666585,51.659449767012624,65.08122328194582,21.51413092260038,125.69245509976572,24.749943116751822,142.90958667402631,7.026061345200512,36.378380969801086,3.4080074801938145,11.447626060184247,7.876554852135438,17.849172924909606,0.5382394060654596,0.33235873052960974,1.714036531525134,1.8580747058775473,0.902120472368069,0.7459021238974292,19.80979202875034,190.18851384434686,76.94769234420187,58.2379830697051,9.244549065416688,177.24271148545856,4.08977678511935,61.346409673805645,3.2505026221357656,7.211967159268017,9.930378573622493,8.017898667791899,0.6696795651390737,0.5934281344254649,1.4881426430903193,3.271012123463152,0.470567768702791,0.2852273649847108,22.643405194275946,91.30588341864556,32.230087143281544,20.459350786885224,13.50064693918215,297.76223750789467,8.936031904833094,69.53389298771384,3.287309311648692,8.829550312081086,8.082624807583363,15.880215460987156,0.618230318256978,0.32674892419968604,1.7616870875395731,1.5177211381660611,0.8513013248297113,1.1165839305352896,24.339703141325746,139.70935747444707,24.00073040914799,60.22803825801891,20.686918057460154,77.40038689709733,1146.0,2745.1666666666665,3.0,0.0,5.0,0.0,1.0,0.0,1
18,5.749106982774332,18.20089679783079,7.215223590478054,27.949646792818793,5.996183297169801,11.876366094163528,0.7732681426900125,0.45681862664114486,1.4654773395014566,1.3278252242460302,2.4667132337505606,2.5288085799691484,27.92910173716466,210.0426393701513,33.41179627476476,135.74913861564454,25.706554929195846,54.8935977828629,7.349285763060643,35.70682531118194,8.039242981588314,33.62610887692021,4.221190222353772,17.601079256300338,1.100105766532428,1.4801547725032995,0.5753089007098249,0.2921704814982737,3.411418651225488,6.916597186751305,29.050269761796816,145.11130302624318,28.254738821859025,62.709256288574366,12.194487153043076,246.09368517865772,8.593740526483863,33.729721364530576,5.4886768452246875,16.52035175589111,2.049279118816044,3.6491687374493424,1.1309583997328185,1.1338082364523965,0.7182212546898711,0.25253113706728214,2.0739407767966203,1.926179012482747,52.71478444304914,93.23069258878049,61.52448672089129,1099.6803494281053,51.83981559289753,83.57254659314236,8.856239484653948,11.942763173071697,4.577524138439591,14.755100038649061,1.9599403617842488,7.423431449216321,0.8246857440124847,0.4804027586393076,0.519904125773847,0.19399672593642106,1.6830275957781349,2.0198696602684634,56.36659784475084,81.09424840501964,22.791684344163915,125.28473838634139,44.100619458361884,159.14764303512206,5.266450771381461,51.91913009073009,1.866417086770686,4.694690560867407,8.532523634177196,14.24632576539794,0.616594895393104,0.21744960384924844,1.804782334643092,2.128012350447072,0.39013759689971556,0.14099024704450003,20.08904981370295,326.5361758644814,50.269740615760426,23.08324886723835,17.010844215977095,128.80122225986207,4.160604753546952,45.12231135039703,1.539074430401689,2.2391142880882984,10.046577479710894,10.746865652770612,0.44255057603920916,0.1321831943845841,1.4794044758956004,2.4718671956826315,0.2835497061653804,0.1514764999803131,23.4143316390106,105.55371364689998,14.387318875908193,20.359205989274226,14.77787077097603,125.39359679320549,8.871996444315542,65.09166506218611,3.446312483971249,10.286822388444676,7.385669268297227,36.304160854738754,0.5191872498632836,0.08719716805150216,1.9282191671554554,1.1788712399459131,0.6422000938810367,0.2424213600877699,27.043359661958494,166.29830071167387,25.500024036807908,74.96810131641305,17.642351984977722,32.22611221312982,1226.0,2745.1666666666665,3.0,0.0,6.0,0.0,3.0,0.0,1
19,9.273413681070119,103.3326936756214,9.224365444689248,101.54972801639614,7.462104525273017,58.781769828886596,1.8769511652580406,6.836985104393312,1.417510399778852,1.3345540222533114,2.1515363977864403,2.191082430894732,34.597697763811816,250.90948366215352,16.4683984327979,128.2795758818884,28.60648621511723,133.65877442648377,8.095278569389114,25.30380518783691,8.04694723498426,58.772103243352234,5.156913795523881,9.93563540626817,0.9541221270389155,0.8612234532317331,0.7065508357565644,0.20494551233266453,2.561086191348114,2.4920599175035694,32.85532842107241,142.91569356894897,29.27699787807728,181.84534134649496,8.790472352208354,38.49418050916952,7.178493802265897,19.69197948503245,7.867364496239641,61.36962986887423,4.357686892353791,44.799629051629104,1.6378136378255008,1.5337778665190995,1.1738972112353767,1.0687443503022231,1.9836865359587976,1.7942702208527423,28.034439336529093,274.28810643115077,79.60853144608808,249.2307391298023,50.56117273825967,45.62939553573133,8.36935508535218,30.3371169027607,6.327013071358863,40.64264358296811,3.1932331664045215,5.593805347395627,1.2533758427312298,0.7732930839876911,0.8801515879140375,0.43094407511104216,2.072150252767175,2.5912263514025655,39.46403584114754,218.1301007896663,16.61851707051472,115.08319975004608,47.05896607288339,56.69975880693808,8.019474999079975,74.59335306862702,2.84702242202851,10.633954727204157,5.7798885978676005,15.281335483726801,0.7476254546736979,0.23838960382603622,1.404086336907699,1.1999528207621755,0.567319918207783,0.2421019585695275,36.01556831697074,38.40461411925498,53.77936806863184,69.38033887535212,31.955071412808987,436.8696010783468,8.708454741792783,52.4061658262322,4.20743329352725,23.138602441662407,7.666811382984588,66.09964303724234,0.9191158891878044,0.7130232743265972,1.551112551360458,1.6146005006107413,0.643370970399299,0.2756493475619691,31.67478327988261,32.50885258019301,25.546913394611842,38.833627232485874,34.378426984364154,351.8728622889978,10.18994296432694,91.83292504483501,3.777647584095309,10.61519205402741,6.5668700817993,32.71366789892415,0.5777412086258288,0.2903282391824914,1.6456756077717105,2.3549411512770115,0.7795892046055067,0.5085715354462591,39.35449908978373,19.61027653677025,21.33032048473042,42.023580510428424,21.20058252296066,128.1330879690623,1322.0,2745.1666666666665,3.0,0.0,1.0,0.0,1.0,0.0,1
20,8.746168558490952,83.21953688850637,7.755780896403472,68.25099001529321,11.160109560751454,139.6690013755949,2.0643504094641183,2.9379073703467165,1.4989878696991512,1.472966407348248,1.7330244773772459,1.0664592323553925,21.62304174529584,160.77267300083648,14.561368201236698,46.3149094549119,39.77321603680184,22.129726557174404,8.7761935876137,32.059188603095336,6.413881657264344,54.27856520984071,7.847966817055844,62.93286106213652,2.0841368289576914,4.933861803978095,1.617261423055309,1.2597177605815555,2.148128709021087,2.4767982049970216,21.422982469859704,164.4273040254839,37.4778946091457,280.15549156043255,31.229372443085875,235.64250230401316,6.767277983861116,59.386025301238725,6.805348261738021,54.749326073185,10.158985758766285,64.65120867727386,1.5242074196077677,2.7565140834249062,1.8948675981048722,3.763013821572116,1.3373502173322094,1.490494823622722,23.460694368372966,103.35522196328327,43.645507422600005,221.07467214594828,86.274239092242,108.19126399763094,9.072509710548333,46.90589062653076,6.0288051645996985,26.93742322700211,6.53127714361769,42.91797716974712,2.2350977278669566,2.5884211078626866,1.9609597158818943,1.7849190616865498,1.5038369174490975,1.250106614478322,28.226871730955267,104.06253443407911,53.031768092792994,395.74531361251786,15.154757847196489,159.520369442273,5.232098440192022,33.534491229857196,7.927907844660006,29.981419956230916,4.881990318881857,22.058570986596504,1.5785907717159233,2.7123590464496345,1.270220161809262,3.6609813692946376,1.1079162384347363,1.1605034656034567,28.97883105442669,71.3148195596667,85.05138637479497,236.3700502256756,55.73811228630951,215.85120138374688,4.5281054562276735,13.630594227065972,7.823129717322344,43.097588346487534,5.800834855177949,59.10257284408121,1.4939517215465437,4.183199081826317,0.9350904785662643,1.2710630695625633,0.7005769679868254,0.5699824058950276,16.306619902342064,130.62741239960306,36.68826798971187,518.3310343893268,54.97831603835301,53.461568733199826,7.9914503511664,76.90463890708139,6.943912015270792,56.92989296054666,4.113218837196409,30.649053729590044,1.3791097192214647,4.010211261649382,1.7002647428346274,1.4068369735550883,1.516275977921667,4.259912313252676,22.915738031350447,254.75769846093684,46.70453436664455,1083.3826801700002,30.857170668754787,50.05853711929517,1110.0,2745.1666666666665,6.0,0.0,3.0,0.0,1.0,0.0,1
21,3.9354692455998608,13.228472538798657,6.812124726578634,27.56520162401841,7.4855666769596425,34.80836808501941,1.576065706341265,2.400269280283219,1.0967147392645293,0.6665047119757271,2.6043903710351466,3.148955960131717,10.717984356974041,37.56638725145018,28.694734299380475,187.25741724802407,25.658205373614038,238.0367837267626,5.151751624368831,13.167579292219418,9.305431357651784,32.23986296168254,4.951065900174705,24.3925372308676,1.8949231711931485,1.7972244226823448,1.2061420890350842,1.0147987824621132,2.407669632790806,4.545042276551577,17.671216474053608,81.03914159714549,47.162143875880794,124.052311486309,21.378304007921102,143.1609796827331,3.9312752500055512,19.286940182952296,5.029657366958277,23.161301578456403,7.219549028336672,29.379793344713416,1.6516469153704234,6.517717564340259,0.7230990967373698,0.6052698176157678,0.9660942884723563,1.4193600991106519,15.98491368636242,209.66959473786443,60.87954777248657,95.51792567956012,61.545920018991715,247.91691026455078,7.893558537350834,22.076845925387882,7.330637416704583,23.34359798915839,5.207294819539526,19.162916428054494,2.021304650304232,2.0161821584630295,1.0061425292962205,0.9679910575145365,1.2864446214744976,1.2713228399225451,21.505001002830035,108.94576390094025,21.554806366809824,288.5867200733195,8.398406513323442,46.18640160062679,4.831945173944043,24.232201996790955,7.095609292247749,59.185852233318464,4.937948955027438,9.017266873442654,1.7564168844464652,1.633596757126407,1.1396141513173588,0.7753219765644779,0.447627086493377,0.44992922204110936,16.875602615132763,276.7882947816971,78.97635659065035,256.56471205771504,28.92164593243467,302.64511272561685,3.5022194624276453,12.680627835304247,8.891701349844508,78.99225395155713,5.465817067770864,9.309045245154575,1.4679788775608273,1.253217155006046,1.224125492855397,1.670715010434273,0.47945345369796655,0.3913204410550642,14.952809305810138,158.13375846994379,42.816022488293726,269.8757914881144,21.002657179015777,277.20703541993885,6.717049471087218,49.27147105036808,9.330268282834338,57.475670812780095,4.375845162599291,20.794163718869793,1.6131500200579427,2.697852235239023,1.5005614647219854,1.193223245387981,1.1895202560535534,1.6076363232199788,18.51680998446533,91.50956503811831,49.87163405128605,857.0385998918896,14.698202713583056,65.3618117954515,1139.0,2745.1666666666665,9.0,0.0,6.0,0.0,2.0,0.0,1
22,7.210559873414632,39.728261356304664,4.853353417030849,29.635604470504894,7.715484804190819,32.07031960062711,1.3352149311113506,1.4518894794419834,1.366454044029082,1.6536242913699448,1.0157840288855529,1.234179631921136,25.042382413017158,412.5687427569955,7.879263661102037,21.484653589867868,37.55193190284855,188.79913452166684,9.999535851509862,85.50125638525647,8.810641924114847,116.35881907278838,7.175713114697713,89.71242175422334,2.150448194216134,8.557409961910837,1.3495203123533408,3.1371634629052534,1.940239312574885,2.8010381576853756,40.07516760852455,124.36579202452761,24.79350919832182,266.38921240141406,15.142793442662908,71.82680268367749,6.519025016226163,26.91213425170626,6.167889302812558,41.55701850705619,6.4378166763492715,69.33800115327884,1.3229113667421892,1.6935467344445483,0.7502642163584904,0.33162112764914725,1.5351829201044793,1.7888957803075802,25.03557258284553,157.82304046249436,70.61647885148696,109.81872498839968,70.4772653316266,134.52939657325155,9.400075448893052,53.47373653668216,6.829148283028893,72.76861513232237,3.2307659875735313,18.550045986802438,1.3594433636859944,2.7129649252242873,1.0104326588816899,1.0040485097667637,2.184457878875469,5.298623385367594,36.11053050552284,193.71243932757716,23.028632817841366,430.615562574614,42.28160053590385,171.1795621027762,6.321546429799077,36.55197820576325,4.669728565034945,53.67279527415825,7.700212778811708,73.82012864875843,0.9524609585748007,0.5433480751781707,1.6073945825044786,4.68291974560976,0.5209985862541378,0.1889043847628464,20.129198856219567,264.38370653040397,56.945075166818185,122.7457039502168,26.469011869713746,503.75562454419236,7.500282120824025,123.51881682814172,4.856375506281523,48.61169101316118,6.825307838948063,42.11383466742023,0.710952314813184,0.3574030113805592,1.4656738255543438,2.975119339949291,0.8927079307556209,0.8885046295678023,23.793752304015896,230.2634799522765,23.875356976498555,71.42445646687733,18.481184957765084,93.65743047643562,11.207364263743656,62.032736491489615,7.188169662917846,67.27725061127025,6.066813807708124,29.172400405728062,1.0001138439556347,0.4886835874368184,1.6267831452417274,1.7445346731119065,1.4485437313206648,3.6173919115925974,31.072770729455172,184.65701062651237,38.629010869653186,93.35141765522323,16.201420017039577,58.383607615025824,1380.0,2745.1666666666665,5.0,0.0,1.0,0.0,1.0,0.0,1
23,8.057960219804754,37.95804194771901,7.324139054020795,48.72545292037623,9.201125852310856,50.51462420902668,1.8690377501822308,3.0363053639556727,1.9372090367363632,0.7175732620880495,1.5041296000113886,2.260217198992611,30.030242009551486,428.7323576379259,9.939535254849254,103.87322648565991,42.80767320137656,296.14133541029935,10.317045504556589,120.67741311538543,9.35000436219325,122.63350257602164,10.719712000525458,119.69334389218444,2.178503011782314,6.174568993572168,1.1360994550593722,0.9271993434241618,2.148163609716717,3.7759665089640206,27.00560283397443,398.8797896501823,28.84469431605787,386.4010483743843,43.135600819267864,517.8389611554005,6.325780365863063,26.265419787972863,6.110509736411974,25.098812537944664,7.690665451902381,45.26549371935177,2.037112485339546,2.1408613139396904,1.4856707433094554,0.6931873599457344,0.9888597199930012,0.4657015639636037,23.716812499824563,333.6341305982444,58.07562471885049,229.47641547233528,17.145509638839005,217.61031189966786,5.42470042987917,38.72698876687671,6.585854985108033,52.41391517867295,9.64160005171984,34.63833932887269,1.549102794090852,2.8671085509534544,1.3755529014476013,4.013035341048006,1.0888082842591467,1.20449477601265,20.092355896096205,368.7085308484951,10.27973369703479,36.83165340701825,78.53490850543449,512.7169815887183,4.320147137183346,13.279359614001853,8.693993616663949,77.74829535746582,4.004067699168294,15.361280508372499,1.5448706492123023,1.501802620478756,0.9970173235154243,0.6184930594844276,1.2474342631433386,1.617355735783227,28.922680370056828,253.5524016272185,23.855042390237198,95.90973722037802,53.835571130994936,88.11963747249828,4.84748913827275,24.39534684572124,8.232267873858241,69.29002008304195,4.163806196322757,20.678877986990848,1.0386601619889384,1.0243308313810076,1.3555381517414806,1.68938622204077,0.9133970667608082,1.8830414164212568,22.15137369253606,268.19419355777,19.72425440398369,90.30473836913252,34.59795682864953,102.46430355731052,7.075123427842245,64.15984855648877,7.922179937652102,72.43726681667688,4.087153421478212,37.05969181035545,1.6192479430085551,2.2287630567953847,2.0902244079220034,4.680568361391231,1.3667745185753546,3.852236244328593,26.272240810796042,125.37358650412821,27.814072512707657,68.39486611270185,16.772748586963555,58.49242874844251,1202.0,2745.1666666666665,6.0,0.0,2.0,0.0,2.0,0.0,1
24,10.59540378413477,12.407696894172425,4.665470703119072,10.67802332323787,3.6470008150195876,3.7100020848004216,1.0034438746116892,0.5808614400434748,0.35186596683744925,0.11572757800010339,1.9781286919705612,1.8674894537296967,62.49001609422884,71.02923790911555,19.948333308409428,152.06806411583912,18.466389945857433,15.169658184455288,10.100635601012087,20.271389591716638,3.3514030110399697,20.825351705407947,4.082908577064454,6.752625640972655,0.8425259161431816,0.5445868694852976,0.5000836069860305,0.21772849660538576,1.798329619338314,2.7696281247646377,25.909892635780146,158.04299590718867,16.88126824261075,251.85520646939412,43.43964118325249,32.90357505802285,10.090832523219493,6.449057398934243,2.9003371825410844,4.875722652690759,1.5506101584368133,2.0126251752188344,0.7710026191259369,0.8000613977548465,0.5215789598994245,0.08390481207039169,0.5259519238809628,0.1664589916381992,38.45389344020443,5.737832939702241,30.11253857480887,8.554061897632765,7.400785779076222,27.34254149166496,9.323845386505127,7.068770938627027,4.55864669753043,15.29688438320845,1.390040176449786,1.9091047475867533,0.5356363757977839,0.2949108244350873,0.3204485202543901,0.087511600109569,0.6320731389369734,0.39955521070875927,31.03747927418071,4.227052530022023,10.561240173258835,18.60797302283104,81.42437617686572,12.947350304122068,9.446637996652509,6.095109160528412,0.9325343328344801,0.6180914387380071,2.989437505355856,2.713557791755015,0.27139934206906274,0.04268796617528145,0.26638996125409864,0.040018850112106756,0.1968681264635901,0.019212221908446566,31.358631502857524,2.1895884958107534,1.8045048716565522,1.3954112785752182,52.09997162371051,7.089551523607647,9.69101929269443,5.291619808222151,0.8473981735373729,0.34998961785062305,1.8383041621695237,1.1770902441788393,0.25524266863959577,0.027446497584966,0.28379426047640716,0.046860271052966765,0.1545325911639886,0.011330527587739832,24.574209113147376,11.20376217314621,16.096363375858708,16.794831809207015,27.43188293204123,14.808705613109192,9.523078438985413,4.09150421545533,0.9375657870560288,0.4874979801497046,3.2818816261396884,1.6800482875513356,0.08976788940011056,0.006176872595767663,0.8682190087033658,0.26068200591861257,0.14374113796170782,0.011190493344840874,24.115662864558605,11.205795823168014,9.09485192698792,13.282401011660596,23.18902330240492,35.973179217298934,1780.0,2745.1666666666665,2.0,0.0,2.0,0.0,3.0,0.0,2
25,9.244970506067434,0.19781823218352612,0.9913594070667637,0.4694476907763033,3.1640070360668457,0.4624490274331866,0.26354403837033397,0.017827067421938913,0.11934253074584442,0.009877768711564233,0.11930560737652755,0.007711964272926627,30.965625278198917,8.290040890877037,6.051413248915699,0.5135566557975371,30.671938711767037,0.3015043343474653,9.391030530244606,0.7090741708295593,1.4475070214341523,0.5766038187385275,2.1490845835011307,0.623317150548156,0.13914113287725202,0.010769281748984979,0.14470781736093244,0.03281239436716433,0.08727259679108604,0.008042443670375042,5.902837697313635,13.587032419131273,8.969756742867316,8.343562726092888,36.497391189659496,3.1308707708514385,4.162550959139239,7.0095356287982735,8.199668328406402,2.936223083076512,1.3854423507080718,0.5289643052007871,0.38218606063756494,0.21959245980636422,0.19970839310216187,0.05076295757102363,0.7093570510861953,0.2825310091484105,15.29722773740634,92.41972896874253,113.60509596345175,180.16986522108016,45.74393680214223,53.40281723212627,2.555834089493307,3.9110854396420645,9.275821003466021,1.3419669351433936,1.136837285704067,0.7050116240942885,0.565449337752855,0.3749364712857333,0.25195478509181535,0.01410040821511511,0.645951348718369,0.26100946267367003,15.143038278702873,41.99082483227668,88.7877181669625,385.3290109403033,27.648722640717228,81.22218915838862,6.536659186716237,4.167985076185796,0.4521488848229798,0.12756166940354982,6.665259772901377,8.563672012955209,0.18696989527728552,0.009862119060696863,1.0846873393066185,0.2552120124900365,0.05510861315354139,0.0025894159577228406,23.375185492289,158.1107501700315,71.84611705126683,2.550733033434513,81.19045384022412,190.03831320647396,7.290769898430419,2.6581770688175568,0.6241703905494503,0.20254673182561653,6.048865568901294,11.99503126691055,0.1524440167466621,0.010494886959479416,1.1486877232162251,0.21750711476080206,0.10106813284687759,0.006932444194218289,26.044928978819872,96.07780860292071,32.05261845878475,17.74401135000248,55.321731230172006,122.81454860964104,8.085544704732316,0.4675275435910075,2.4400780431473454,1.0100482495191965,6.2238418016304875,13.84886099753151,0.2770201544951421,0.01972625333700884,1.7887635533054724,0.9077679843761441,0.25880855200709313,0.024469436426796293,28.118423598905952,43.16907140203851,59.91769691593739,30.82183917939304,28.985773273512144,215.11596467239954,897.0,2745.1666666666665,2.0,0.0,7.0,0.0,1.0,0.0,2
26,9.462564655430409,0.5908059179138303,1.601042415450188,0.8505737064157163,2.1032190531008563,1.3302808915660969,0.3883560221868655,0.2055941583782452,0.1525598623177541,0.012347046860854046,0.25779260237166113,0.026868580327412517,43.227677087098854,1.1003392128415284,19.192530948154175,9.010966160074744,19.74642238300808,3.8412187385402823,9.578069547263299,0.7203969946551284,1.5304558254310152,0.6186957219295037,1.7372243957419093,0.5409460123543655,0.23222233689626812,0.025389106917352057,0.18481714385999007,0.015375507957470223,0.20197234190235078,0.0209746307469871,13.335903330814114,74.02890525825282,44.50414474234397,11.68428337825938,14.969332341989759,11.121125915274293,3.771193627494475,8.277312825516152,8.214015142693704,4.966345368070198,1.6993527428879922,0.7578007108034636,0.2977115131827143,0.04028123905190735,0.2408742976827722,0.045288900631086995,0.9023174477756558,0.387497332081593,14.082052166218668,182.99001197859405,96.34454392069611,369.5487706918389,48.235050707232226,38.77318996997712,2.9606687934215064,5.403754710414763,9.06576676395058,3.2591870374638447,1.9653412733865048,0.9154003996135177,0.48075869566380197,0.10862189630997018,0.3480391173330213,0.04935376172456982,0.9138963541661734,0.33753849790275164,12.762723054510454,116.81295151365545,67.40627324778731,1290.4842141413544,42.35933242713549,40.313782250835324,8.926524035838428,7.585181708239563,0.6163340398028122,0.2714739519203792,4.297731501621436,2.052826524181849,0.26827357456767265,0.04585865367194138,0.8359889558295189,0.5509187979904472,0.14553792846134417,0.012315760954353869,38.904264587065136,10.991091916397043,66.51292383604945,3.5204977992538278,43.74456992597211,363.82320462063683,7.918806527859598,5.52478686324858,0.6109694529073568,0.247961277843277,5.352606130280218,13.777497700822202,0.22924659604294154,0.021830761526392194,0.738611954434142,0.28013599841181747,0.1202018067744967,0.006884787833656072,26.25277792156072,59.23683766992578,36.80438309348091,13.441905176319807,50.60457218022636,192.1387191588061,7.610426984439239,2.894333357386996,2.0617195269020883,1.195086516807676,6.882572555327942,6.8697564903634225,0.307614911312896,0.05442880217842504,0.6671885170572494,0.18828207086800733,0.3007622867181398,0.08731343579550098,27.95173860518313,40.086595210468765,34.52562321615483,45.40093312018989,37.00637678390379,435.8776124301012,1011.0,2745.1666666666665,3.0,0.0,4.0,0.0,3.0,0.0,2
27,11.085585520124237,48.698367355181574,4.458533341250285,27.127088617603313,2.147612410136344,8.303235765327932,0.5268079665083006,0.17191640440888412,0.27741290036574756,0.066924786297165,2.016281009790647,1.5238187960937464,53.91032459195806,120.6043147610475,14.012243631671476,79.06669089100001,33.292180414357894,28.805151150118956,10.560051868798324,46.79820582642636,5.793405150305171,28.837225716441633,3.5965009395094865,16.258122777197624,0.6451870553351126,0.3387670786170137,0.5280578052933785,0.2201296379346857,1.8267073296164857,1.7953679385745227,56.228724990760426,67.16545017096584,33.236157564662435,187.18417786118744,37.369552633380366,27.55278432031824,9.9237275524528,45.76071415643546,4.979674523830084,47.85960862653543,3.3028554638940326,15.176290645214989,0.9716306326786077,0.8111782596638747,0.37863106581814027,0.23713184511523377,1.0609064186146246,0.783160804967959,31.855951288128427,13.240480176495538,61.84899805395643,95.77920383155552,37.225443191949836,6.8696513488152995,9.708970563187783,36.05344283322574,6.46932077817413,60.25134420856571,3.3579333133079645,11.687663999774134,1.4323840576432418,1.2432375835931102,0.39810067676110655,0.14246896210477616,0.9806248087446252,0.5932054463311095,25.509445633018874,16.977621634400855,14.929233020181814,74.3273218548065,69.55099651694957,4.237299022784307,8.446575590260121,27.34071228198296,1.3885466267061497,2.287056829788409,5.5442548786079024,11.950403949607491,0.7044998217626213,0.5292017819814441,0.5275282098092293,0.29551426105908973,0.3137243086734571,0.09895070116549014,36.859300750395214,0.90205699676744,10.135385589293353,27.005181025424058,56.70674485264562,10.264614540557796,10.14639195816293,22.852385011800187,1.193276612573041,1.2976885704384833,1.071660143990862,1.682281920722875,0.3648389228285182,0.12562968485520695,0.35939440973011716,0.2286132923403783,0.1618402591463981,0.01914927403722455,36.88472150307334,12.924099376260846,7.251739236449009,13.338930305436868,13.391019892297397,9.999351633447809,9.242310876345766,15.400905820475234,1.3002806952305508,1.220866969854731,3.406563477086428,7.73926326608705,0.28343334701684053,0.02089408806824761,0.9945988006637694,0.3057385368079534,0.11153019931137134,0.010205413366574994,37.665868485171494,21.413469432530785,7.800200544338859,18.307021298647285,5.004705361088027,10.753888261650552,702.0,2745.1666666666665,10.0,0.0,2.0,0.0,1.0,0.0,2
28,9.200136743197783,2.176253173346999,3.5307179592570384,5.849483916879714,2.3028682667906115,1.4075451382963866,0.4734868088027061,0.1945052874283422,0.45519577947995776,0.3029911178132338,0.9443743908777833,0.36967861876323327,45.86108628162363,28.474109954576843,19.290666202072938,67.07316724221945,7.077977786036157,13.945537752776687,7.442534218727514,16.77343369561078,4.153677576442779,14.508558190010588,4.587312160739006,49.97512185426225,0.8461046251108181,0.8161961104425349,0.8571059087301651,0.87305491672906,1.3581599749231426,2.0928060425331796,41.949043189623076,43.02808319024452,24.78745031159227,156.69187166104552,14.144394267967886,187.0178290634846,6.191902214486296,9.23250658746873,6.460335030740137,10.823343149339477,2.380507427962363,4.033605243287561,0.5885207963842405,0.12957269630393,0.4786460166591225,0.1366372618358938,1.5730226788957968,0.9951857951276459,30.097409107573124,161.08116940772155,72.85208971329156,874.1629741812026,42.327250074945105,90.31574986169753,4.8202523326563,14.999343630121219,6.92789160139159,18.535813982527706,4.156229856662191,24.484297496026194,0.8776988209384745,0.7018321668113529,0.8621497507906873,0.4130751878081725,1.6054655031586653,0.9660021212894719,25.785965204897508,149.47050326182338,17.90492890617239,58.046507721654635,49.42157559895384,231.48323446271255,8.20130363485431,7.795827947216145,2.0960042198672273,4.892158397080968,3.842909262675113,5.63446713717169,0.3311679896952273,0.06970302650445571,1.5761091165779704,0.552763167406018,0.48392080551512456,0.1772727558220971,32.441069797916306,46.36492072337012,40.508210097887236,167.22534537408794,58.4870769727296,571.1032032586463,7.232213652594972,4.73123797420676,1.5266002234256728,2.135735294445076,5.596249446190523,7.043868651857045,0.3194779618077227,0.04409617200036283,1.6490692262870943,0.577245249222364,0.42625421509198147,0.08228506414389308,23.42509168814559,103.43119868042977,16.43158353955706,34.81360995928337,53.236960039612995,358.1891529211552,8.880882192053189,7.862016582020793,1.4174315749743318,2.141175851333053,3.4660885873101446,4.064016520345131,0.46991802853897463,0.06911192658670932,1.1057710504012686,0.6668555682249091,0.21495374016082994,0.01896215126529494,38.04465228549683,15.082782350866276,26.736667517140425,33.4730048666926,33.480064866292544,147.8535592764287,771.0,2745.1666666666665,7.0,0.0,3.0,0.0,1.0,0.0,2
29,9.629319923358727,0.14311076946986787,1.4032570117845287,0.7589378984366871,0.9303716813003161,0.07822714159685103,0.2074574417748504,0.012355039019637274,0.07690596122497909,0.0025626604045881273,0.325851630380902,0.046468374842360174,56.67243843710884,2.364910567334049,12.653544668334623,17.390400447146074,0.4138053181897643,0.2512180860019448,9.697056501609845,0.16215370773160662,0.7631092977205817,0.27747940458354986,0.3568371894424627,0.03850885441829281,0.10028846964731462,0.009921576292886371,0.07988898914787489,0.0031831916805700354,0.27191744713744315,0.02694227358764595,54.24296734214488,0.38525412195355363,17.166498126245994,8.78734483185652,7.263044006916699,1.699026536367233,8.330830600380239,0.5069269870087558,4.565257252909202,2.2225815181685253,1.9842274671430746,0.34002567524055194,0.316137353377674,0.036715087866045805,0.19526730872335643,0.0259734408189166,0.5808908160047822,0.11158933457330199,43.55443105118051,3.746337165217842,46.5439242368245,148.01652647164275,49.71714877555384,5.19962105535522,7.615720772611502,0.5727898973181802,5.99789758808705,1.4792709203323748,0.8587832701860706,0.3739190522101028,0.39052262964776785,0.05966709120831452,0.29374003368958856,0.04174590310187402,0.5116301693925274,0.08441866199930327,41.518700067509606,4.282629501521433,14.527222314592224,97.75527199109462,36.73301765273289,6.50837947343443,4.921847653652423,6.379028665604384,2.3089237525976825,1.2859855079262377,7.451732938131575,10.780155095020621,0.3678197238185232,0.08491170632627505,1.4397392910776547,0.7885920456212491,0.1950159943418176,0.018404306058907253,16.70273194548504,104.00654497974338,61.319309150316435,41.77911357628478,87.12966634423694,106.66757822153647,2.959023508472556,6.601122535840863,2.6148972308767435,1.4294175028764111,9.016249438675727,8.915483687328368,0.47063491777491173,0.058465190547456636,1.4943961471123672,0.7019674070399404,0.08994526537366787,0.006069660794000827,15.535516356771494,62.77412041811371,32.31334368036597,41.87619336312235,67.75657255478326,40.423389850738616,9.905264756956154,4.577963893936313,1.2699088725719334,0.3747016920576803,5.479776623751453,4.778454228640866,0.21785625963017102,0.04542360635986239,1.4838240559917788,0.628057826946092,0.12552671283303415,0.009220181795728108,27.643682132109753,57.927345754685746,24.539474629565497,21.604090136890235,49.170824451341154,73.15285153251773,937.0,2745.1666666666665,7.0,0.0,6.0,0.0,3.0,0.0,2
30,0.6043470549211936,0.39243937600019346,4.427229012573622,4.3126723533992495,8.794715125257797,3.4827786234785867,0.636033730776929,0.3059402093520264,0.1952242762763992,0.03328426409406329,0.2664951657521338,0.05893676289201645,25.060832165881415,2.7006427766046706,25.381257283753452,66.6920268506352,42.69027031324186,14.039298643986191,2.6568906759728743,10.399686936026747,7.164416350588944,40.376412190946624,5.48883609134107,21.56890182287792,0.9343604086351566,1.3146893857319568,0.31201053086413555,0.1310993498213588,0.7605810988146441,0.8756181281783114,26.826185279129618,142.95655074256825,24.200365646109397,50.0164094262277,21.24316572344435,178.91205757093064,2.3173152583327083,1.4442760685687221,7.4661828141186115,6.8761270970733674,5.762001170637858,2.9992549281862964,0.7037775171264615,0.26964027464460666,0.17226543667075322,0.021666469104280942,0.3716047391757235,0.09993211852104707,4.23506706034847,7.4568478578844015,91.7554550592412,18.09004923036004,76.51691259731903,29.165197535739505,2.4676224097444868,2.914169780010634,9.137608230443291,19.2088676630647,2.9356060012022436,2.3072096366665718,0.6655549808323012,0.6782680978478801,0.31615558079121,0.07734569464027745,0.48350774444310374,0.21096056322247156,8.62667328744962,8.977973690692172,25.76218840035286,1.832780200594064,47.0088473472806,141.40996985135547,3.8892609556076936,0.6607323673237832,2.6528175025509455,5.429146619868059,8.184869410583328,1.4769450369220485,0.4525789616909907,0.11019716558194433,0.35245455824384125,0.11556397215011495,0.2679222262482473,0.07429867003070387,27.992791592086878,2.2892447800934677,56.531111427433586,168.60657220167823,9.323899620145724,81.58937641785721,1.359624544356677,1.9668757840310567,2.65747360905725,7.204251048169188,8.978829207341315,1.9200661904659702,0.5524450617296318,0.33573344703500757,0.5047126071236884,0.1392845357366974,0.1425745467455895,0.02066052093231572,12.594452205530846,104.96002094221238,18.623774718843112,144.3220193628194,10.135584712193157,23.67145679154592,5.653440092726307,36.155623893419616,3.3720624613940964,14.243691219065228,7.182295613237836,28.623750861167114,0.5028799247844511,0.29259624232127607,1.0388851681137612,0.33391135995193166,0.44829116922286105,0.14430543664177306,27.44759665898855,153.64388518694554,44.666070369067114,139.0777680580772,19.395159682516233,61.785478374808676,1098.0,2745.1666666666665,5.0,0.0,3.0,0.0,1.0,0.0,2
31,9.150663512846384,0.14596739663920932,1.6783214471205163,1.5661957189874915,3.1286943195933135,0.10265891742061643,0.1932432874535514,0.015450552018823704,0.16426155311492843,0.01220603904779279,0.33204655177686726,0.04474441160629361,31.478210343840374,3.293515018935945,10.303895107290362,10.067831383726135,26.455788417415725,16.105706868882464,9.540777801808732,0.027135696192365423,0.5684200937304008,0.2165587632230846,1.7926275565479342,0.24101055861456383,0.15873300568078444,0.008245067961761674,0.09377171830415663,0.006295030640361225,0.21032795019110778,0.020385739783219965,13.781542330157032,13.04098973671147,6.153866787641746,5.741407186633116,15.189825785094204,0.756786215410613,2.564235424571439,5.912189002086748,8.76429814923534,2.807594775522062,2.432175291506625,0.6182714523367961,0.37492208940218824,0.055252345896076964,0.1586654363251523,0.03715877041868037,0.7924788432447909,0.4267256184553682,16.273391989054602,34.142713701005235,97.24851477607179,165.59293253337609,67.09071790579274,28.607076790984692,2.4413539464199574,4.3472920318478465,9.305851109120068,1.5373990578267114,0.928633086452002,0.46843947819776716,0.3446355521388208,0.07206038399969532,0.18520079538462816,0.008496640611364474,0.6870882375248147,0.34721923120195025,15.237343091661758,45.11828147950883,39.758577320457164,144.11439350134518,21.512818852840866,5.3030088999589085,6.513973764951716,8.047382791753861,0.9062607619314562,0.1309271140308779,6.510308162942117,8.858983244530235,0.2835370318781461,0.04109478980486375,0.7009179567794691,0.2350209636869453,0.17112501112609788,0.026269461611842664,21.468695589192006,205.21202059258434,57.45589379579323,3.120475705590813,83.3408708098185,139.64361737469733,7.533387484471442,5.292049258018254,0.4000027290177506,0.09581972491392639,5.178609041507402,15.780092954741624,0.17659959668912334,0.021105342325976627,0.7879126412814575,0.3018767252376972,0.15690402198519857,0.011668152132884838,26.531145195934656,121.80437353432656,31.95044910578438,15.599936292168355,48.95358492392862,256.27788321962004,5.82273039106506,4.900553839630249,1.8256733355421744,0.6948776804398139,7.957598252849684,9.496067156528097,0.44505965114874735,0.13050262850269626,0.8514645194161415,0.4395927249219339,0.35528360143849286,0.10600284759640605,26.403662514291415,117.94821336887247,46.55378288985616,25.042353707297195,33.35165992992523,512.2996461743924,1111.0,2745.1666666666665,5.0,0.0,4.0,0.0,2.0,0.0,2
32,9.333153171433928,9.544773871963667E-5,0.16464559132881587,6.855020847157946E-5,3.0663770193553104,1.4448857230899904E-4,0.21628361331165166,5.730617330919502E-6,0.05524529275890872,2.638240843079463E-5,0.012377519307153825,1.6294442503511328E-5,21.410698969719817,0.056431823259904784,2.479871819691105,0.05493156627843407,30.969555470166284,0.08007730658884686,9.487284644532599,4.544641024521079E-5,1.1486951395951581,3.3710993514133336E-5,2.01276119572023,1.8308459239114812E-4,0.04020807741837607,2.746429134956042E-5,0.012887016591223314,7.046105300479726E-5,0.020067558008971628,1.5988006866438624E-5,7.24052531152799,0.057454711359536545,3.7894885829799083,0.05732720875362479,21.329331677262953,0.06741498130285123,0.3388828119849632,2.3644961893422767E-4,9.698529496377343,2.100538711464102E-4,1.2548567273998787,7.539157691159546E-4,0.04449369628702738,1.1890752625866385E-4,0.01908848074763931,3.907447812223766E-5,0.017711961347653495,1.885719150294997E-4,12.476033721839526,0.5812354876941818,122.70789438321445,1.4243457462091471,46.32122461308432,0.6988559518134717,0.9335682266983538,2.1738263525661146E-4,9.701849921632208,4.1866338075207787E-4,1.7026705399402597,0.001693421669012617,0.19573443675238783,1.8163983539749157E-4,0.15428520426236464,4.915142384831992E-5,0.015166745869087787,1.2292115279758652E-4,4.795471541789356,0.6423871624733336,63.22143915081551,0.8939288226416648,14.688367401038745,0.6691003752273755,8.920614632453708,0.001735827780479756,0.9333944202128036,3.454163315688265E-4,3.6788363641138235,0.013199376502014018,0.17848355187236933,2.8765800329757497E-5,0.10978220471114085,7.527918689095547E-4,0.020946767990276713,2.9323546178936655E-4,43.11893551652603,0.2937417479707529,58.51760261493493,0.9020180880522239,27.410320492739178,0.9393208333126948,9.287340886026456,0.0037659934294893985,0.21195446407597368,0.0036709224206562634,2.9342914259894775,0.0118984990129722,0.19270689522034556,5.151919733746189E-4,0.18768917686866793,0.0010758523892913721,0.03040977342836353,4.25693351676412E-4,33.718730831673135,8.036491831604597,31.54765472622866,11.710239579378067,21.763372015557895,9.168585091172126,9.833105635247836,0.009685889359248679,0.12116846432510599,0.006486479762613826,0.9428866857981814,0.008758909765593122,0.12215413231382054,5.628105518063106E-4,1.106746654154846,0.0022079453240700553,0.034073541421013584,6.577446405347491E-4,38.454367558600495,11.430924470685095,47.91962605681867,20.14322212674748,15.404372452372346,8.546277099533024,1073.0,2745.1666666666665,1.0,0.0,4.0,0.0,3.0,0.0,2
33,9.424446880488105,0.23279085238610486,2.365734615008146,0.9259969411992631,1.0229752057165071,0.10381135474595213,0.23462751975735824,0.020600785840291225,0.07802881234652204,0.003968908285829273,0.3870488899497531,0.029023681968933512,54.02102648487407,3.9326287443574928,17.832441182426326,15.673165154007123,1.462597726458344,0.6306271489460696,9.706561341470117,0.21046457280064543,0.737225342830077,0.20143268508122555,0.5709120167151752,0.12613875504150607,0.1484613645981318,0.006565017001053106,0.1339350613101015,0.005489855958980513,0.20050578442780373,0.01534467316744907,53.514274976530125,0.2621553514172354,20.582350546483834,4.326687731846524,5.592141242317073,1.53211095966087,8.117237881402284,0.8743169867579611,5.041960190014286,2.204381463414098,2.258580278131843,0.3456635776269623,0.3419903312949335,0.029943183131766866,0.21219771836745394,0.03000448274573326,0.6181150941764781,0.03495475519494382,42.065748794302756,5.850322797948904,51.52428847254969,108.10124206361236,53.259381731570755,2.652163596511738,7.069412779412875,0.8010408798950114,6.74942220245277,1.5011764861237038,0.8827398951211687,0.32676016669248364,0.3617500656011684,0.03641896819101815,0.31608470170424213,0.03362758861175852,0.5609328669202591,0.02952126721014242,39.407011443080165,8.045884016094137,8.003922379218062,41.19574631653175,36.18427544272407,8.040922638497001,3.910468827953655,6.364374732624421,2.507536127916357,1.756365197576518,8.515167126998058,4.877492098823094,0.4619376515766309,0.11281419911764227,1.2794694205262385,0.7230408701939909,0.17453480079285774,0.01775560091495153,14.180669937344545,50.341869190204044,64.06912859500443,52.95826028268476,90.44910342390367,26.47989797887236,2.3521891936405113,5.2454805690153945,2.696248674919592,1.8111992294207389,9.719250495921182,3.818514014505524,0.5353417719472509,0.045998994979775706,1.289730105487352,0.6123074583034378,0.15995445895749685,0.018460697687000326,13.434198367990842,38.68570825505154,34.673033066217414,44.87413670886809,69.18522827401345,24.604440604206463,10.234621456314846,2.0151259549399327,1.663429146714879,0.6573155139746121,4.958935345734022,3.117085149892944,0.3042733265802223,0.07158424228882157,1.1617612073697068,0.5259155313003662,0.15788123821833258,0.01340321974479514,28.271248222056016,25.592205073469167,24.431061338983188,23.981983373847353,47.862931541316414,39.00717758599305,1042.0,2745.1666666666665,7.0,0.0,6.0,0.0,1.0,0.0,2
34,9.679100047158931,5.7030962933609234E-5,0.2366739337780199,1.463424566995305E-4,1.6794765087781032,8.111456142666282E-5,0.24613780145487074,3.30988277010159E-5,0.026975828778636718,3.603300247774542E-5,0.009928016584252073,3.055607963881874E-5,45.45877212187203,0.0643040185517474,6.470712753949244,0.07561319080446889,8.666933410075488,0.09164843333354626,9.565835441673658,3.630719782761476E-5,0.46705354066843485,3.3332521183314443E-4,1.8176731095129615,1.07773757625264E-4,0.024490729295931633,8.913496902884629E-5,0.006187922638588204,1.8136304042459853E-5,0.024865480638958142,6.577439554575869E-5,35.821706065815455,0.0592983354191085,26.54760119401289,0.08438286824318711,5.582252723735999,0.05092356543548379,9.668498592482088,8.846611329665056E-5,0.11478055764545393,6.147151946921985E-4,1.3859815320915938,2.0605597812769016E-4,0.054634215567487376,1.0834324341842015E-4,0.0051672430900551024,1.5882175157630348E-5,0.021882961220600003,2.486410842244331E-4,39.48080646662422,0.6527414987399782,14.215831993693147,1.091906648010159,44.969825533872154,0.6954037371388588,9.448294808192806,1.473714367438489E-4,1.98692564147612,6.34802303070447E-4,0.9334866420998758,2.4058254263770323E-4,0.19759056877694736,5.600849205507936E-5,0.2096801381249454,4.8281596526367366E-5,0.020485922708356166,2.3590355934829588E-4,37.10840235757564,0.5781671336870507,49.75842034355711,1.1841020392789794,37.389958882200126,0.7122203073557025,7.893245873530267,3.5307634219280726E-4,0.13215159048526987,1.8196920319286488E-4,5.761767316259732,7.134259542693489E-4,0.22211929834679345,4.745009170545699E-5,0.11202737013938019,1.1177213958875528E-4,0.019949828731204843,2.044665142731367E-4,17.55534885469721,0.34116693619744015,38.68817610767006,0.6632639208954713,83.62580395271765,0.455113656136043,9.373812217080133,6.852066269007591E-4,0.11604642516094676,5.447960720361784E-4,2.4556281974961087,0.005159101523950393,0.03940967406797125,1.8818031673088745E-4,0.20370654193735913,1.6217150438870186E-4,0.03552317134817311,3.1522248760121763E-4,37.538269643625505,9.58774118997633,12.42817454418754,10.56970579496075,33.6484978501968,9.657996102880691,8.364910584128364,0.003635014594840368,0.775776238072643,8.405760866315178E-4,5.060249212697066,0.0035703339741244597,0.16090907164700124,7.838776599474042E-5,1.2036388690959023,5.773752880449713E-4,0.017929116042089025,1.8003500070205874E-4,38.67445730767856,9.298662932335924,8.25167776273759,14.011908887033833,12.1824093075747,10.047651073560182,490.0,2745.1666666666665,9.0,0.0,8.0,0.0,1.0,0.0,2
35,5.094812275575556,69.87717340082399,6.724616709293911,47.89210912233749,8.481825843715825,53.425551867792215,1.6759362700356695,7.074590215323919,1.282051788536878,2.5236762615466635,1.104383386079819,0.9961260880930684,12.397807089581015,73.38692169117576,46.419267643881106,30.562156589052197,27.315621421482025,47.099856746999336,4.970578666128095,16.116051107388152,6.798919294255873,12.679677773928821,2.944908364001888,14.702064807270213,1.0818089436924918,1.6669980594661489,0.8096375147431307,0.7898376996725847,1.2780574535055713,1.7949552097944406,14.557746485287314,297.2090934464365,31.174295105657524,87.52661047256173,27.52201217841048,178.5624290814926,6.317301810281712,35.522611910684375,5.68090675292197,15.368167660224428,7.573983693979063,76.01705952934674,1.1739510946633913,3.765621858179725,1.2259705171853468,7.3005974268527245,0.5391250134166587,0.6294810373645782,23.172799467875812,52.0578204010563,49.38087653784462,822.2036849580297,93.37653384551159,82.80732321693839,9.214573363830125,19.96440834280318,3.5265900858868306,7.096808836580363,4.23027029981353,22.44105969696223,1.0860650871149702,0.9625858954553863,1.1019655135434472,0.720195180953857,1.237308941040579,0.5939610737977046,33.94932015034375,193.5538881682832,15.57470136032908,80.60890037995536,7.3795106191990785,11.789870709549112,4.494784834964499,9.750927048887283,4.810076681980657,40.856694782663816,7.705192192884687,21.815512540722573,0.9882184397943771,1.130982788582656,1.1273290067010697,3.1861439407137855,0.9543906599025946,3.1665303901408866,19.191810936558973,17.04888101875418,86.11281088307418,168.52019383442538,18.105387152229223,526.7122361179654,5.763884776863604,57.310104272950554,4.802815747977291,82.72183021589481,7.406378761057367,18.963762530910937,1.1702551315742795,1.998299522686039,1.1407587341134544,3.014783891155865,1.1285865744303312,1.6979502717362316,18.185536970965853,102.26194588577015,35.98372628017025,75.2809359204298,18.253267968536576,328.4608597432351,8.461721037699743,95.74878059159361,8.653757283865417,81.81606605897802,6.725944426559035,27.513829728822103,1.3731359717775733,3.3822106429677747,2.084767805162537,4.211157613012416,1.72435746218968,4.735379145979512,22.625865669046316,152.91524563377297,56.53555108697375,570.8509628590639,17.011394081194755,128.2545809704546,1650.0,2745.1666666666665,5.0,0.0,3.0,0.0,1.0,0.0,1
36,8.110090476126302,65.76659860021526,8.412334862424997,107.8951521808085,10.07227385644055,112.92862684563822,2.5391924919467934,4.686761125658769,1.4949395655299336,1.731448277357924,1.456269244640263,3.6076943958416257,20.432903391880224,116.51570660161667,14.080019101418184,163.8935412045897,31.010218857401643,64.24631625862574,9.131688789768114,76.00490006429337,9.604591824587702,131.46899920175596,7.441683691185359,24.247125503946563,1.6111581343437098,0.9484846161276211,0.9949294815061213,1.3003277617587632,1.684696978410881,2.1706368071297137,19.432150041036184,48.24713362706716,24.765108536537838,86.72451319168684,40.00941467285156,13.832388918737037,6.1084624126100735,76.04450483073201,5.304917095795027,60.763186536078514,10.593175271927322,53.68451197353321,1.731192264009334,2.7257325956834517,1.3949295533203536,3.3860939482747394,1.1580855521625577,1.8690689577234012,26.349088500547147,71.41517496216038,15.92637909158488,198.80985005294488,75.68475501972009,45.59238156958288,6.224183727421114,33.26170537510883,7.153692903995349,36.23388449044755,7.2998027970489545,15.85785047305814,1.9794296902702164,1.9412110650309264,1.448528610802132,0.8995668653370951,1.2504341560300152,1.545882266421728,27.20122651603505,153.19906081547853,32.103155797357715,479.50822441461384,11.639782409147664,26.9246989807915,5.056096757767279,22.391148733931793,7.903057075666459,29.504281876886484,5.209047894924879,11.613432252345385,1.29328270696968,0.8284064509848105,0.9745300640995249,0.7704584411720578,1.8104647610089561,2.4567313798681396,25.96794380535737,98.34595374274427,86.27384678961822,67.41407233376063,25.468459179717534,491.4488431767323,4.288031523633048,27.41381341331363,9.387631529931864,32.52627887786316,3.5642280331632707,8.343543711893819,1.5108900577735507,0.48309668623286206,1.0580073063832949,0.6303557775891949,1.3533847991856927,2.4344717490791283,24.8919037730325,97.35780559306889,48.80215689095344,199.9177766222492,32.203222781913716,156.38127306764235,3.730901434064395,14.504106484692112,12.077079963618221,83.1757237550292,4.850570179182439,8.166696940868023,1.6388046729959835,1.898681016963051,1.7360643924044146,0.6926124587769177,1.672910243761597,3.6491224507488664,29.712324580270284,128.13650922018562,63.025750966361876,684.5532142590428,21.593514492971956,192.7819143280398,1308.0,2745.1666666666665,7.0,0.0,3.0,0.0,1.0,0.0,1
37,7.920138468260964,62.88252434080887,5.9817843745110135,77.06269069866835,7.455291720405633,150.9399195227545,3.036205202944381,16.43747928581371,2.063555144353703,3.594367490385441,0.9922932034746862,1.2279569893957247,24.28063451683982,462.86980184599776,9.68522271802083,22.103185723554898,32.07848385399341,297.4815040848107,7.465319615289651,12.183893209097098,4.456454784346961,34.98315657116781,2.897006409052368,8.042668573902933,0.7295046432808207,0.43200837380506335,0.856182020090685,0.38593090841398164,1.7463138246322205,1.445268787440822,32.53010954250947,142.2461746310043,23.869989874942526,90.22049944247269,9.034895585499992,41.00398227174426,5.266829633550173,15.526184249133706,7.016353168756346,42.04097234240987,7.3736502522839364,97.44765840817433,2.1439358346557853,5.96459418680379,1.2840198642311833,3.117317345551129,1.634434667369608,0.9936236234014855,25.190821156152705,106.54668262747171,54.68826088984368,473.84232591904487,88.04047722579367,338.09374692701635,7.30625396328901,35.364556138695356,5.429135828345849,19.380621701018462,4.833417797461152,50.01358350356912,1.1541766608802817,0.6487337610731017,0.3487126865663478,0.1323365682387174,1.6677148205572894,0.9618743921294923,26.618526457423005,152.64574989601493,15.504722157235962,35.510280458510245,25.629135005381883,98.46275079691428,4.607497992683511,20.541927258444954,6.366950266037486,95.40815140505183,5.5856336320310485,53.903935332478525,0.8060441431152063,1.3757249089893415,1.6492540247439926,4.481165697716554,1.1522073864792757,0.4158888968329303,26.10337290052551,20.969587520859793,82.21192725587287,608.6357019067818,52.57402869548587,838.5400390302981,7.394570828101583,48.70624735339106,6.893818460898834,74.41836513475508,4.085499304495958,8.165321639475248,1.1154766659772033,0.7763693344588747,0.7808678636600094,0.9799700735795885,1.1230260721659957,1.515942696499931,24.048821337397587,176.96139192798955,45.713788227481736,208.72713395871594,29.356955828258346,263.34579160331833,8.688488761186909,39.993895153804495,9.106298745892818,77.57696418620233,3.9436464364748467,35.46908099630749,2.0064325928276414,2.755774630282044,1.324948999112297,1.2900639892418386,1.9762706360419522,6.321202374752296,28.97115575806212,231.19790577963587,43.917752102923,1590.1515725940383,15.95126000178453,158.3598541790913,1006.0,2745.1666666666665,5.0,0.0,4.0,0.0,2.0,0.0,1
38,5.942099173041318,40.982945192906655,6.898490407138816,89.9015439962044,8.249186689121577,94.10524508761715,2.4962691309609712,14.980675105754113,1.440405751063967,0.9987996656710586,2.1650395056037284,3.033443975654033,19.40646702857966,149.8398278554576,24.16811017535668,192.59375312780907,34.40524971682722,134.78902719999073,7.319572546987573,27.212320377265833,5.570976574138548,60.896689094928874,6.132312673560822,59.41029129790971,1.9140745588676047,4.335211975117856,1.3718027708208116,1.1307253259139378,2.3013539532487646,2.2657602372483163,30.40514338115302,220.78993170057916,21.828219664072133,299.0157279360902,36.7996652824444,169.50129051516888,7.763244204840608,30.970223301909265,6.005690583506424,73.11241339054985,7.303396647394691,90.75083781602758,1.4137932810423,2.54309926869292,1.748136514254964,4.328317821472729,1.164348428240509,1.3835581080048216,28.091299864468652,141.124498516744,36.47475797431904,165.5656880788401,71.12197871761427,44.39620676888272,7.919911812352871,12.775679812562243,5.0192576655037495,37.40387027172582,3.8036231316667237,26.816200965090026,1.2359766528442584,1.492679957262143,1.1550233015631073,1.182533762583963,1.8975796069723467,1.010892261260442,30.681614654169557,145.05379269064176,14.61063892834753,49.76294654510703,12.84329536791829,84.12610159028618,4.475820700869541,15.329349544301293,4.639816647632181,29.22405233982889,6.569230103443341,18.026855208258805,1.2778198449719358,0.9677267816513294,0.7518993732287903,0.30029051925381484,1.2253658875529732,1.6500018276354136,19.38147496156271,168.97280067098737,73.97873778369545,73.25493128372943,28.043016345461428,462.7755339036172,4.670408692354985,19.111180447802155,6.820886269129442,51.11669820814467,6.295040839058424,26.13249703759635,1.3414555676532292,0.782761058236007,0.8267895309151618,1.7083892054127632,1.4682598143818566,3.993103584370643,19.45700282648782,167.6717218205921,29.526528417282012,362.3491661837063,21.058221884668697,213.42409803351248,6.053041873201316,87.61078358893914,7.811068106833742,119.62683984305521,6.585539112433544,43.894007570379465,1.3592829330752279,0.7227194941818286,1.3954950591641895,0.8412994442027756,1.697455416955774,6.861681170669259,23.55440452217397,145.80113623757563,41.34291478267032,637.7990585305055,8.61966654674783,26.454337432870393,1141.0,2745.1666666666665,7.0,0.0,6.0,0.0,3.0,0.0,1
39,4.973311485558007,15.037263846768608,4.107860420640167,8.595256855407836,5.342721268364861,24.714732920254463,0.7453372403477622,0.7546186409629813,1.0868678654940254,1.249920270389457,0.9458796688257742,0.7828823826060117,35.18813928846496,400.2078809421735,22.84670247228106,143.65795620372876,30.922670411820736,353.27409760660646,5.934279968334331,10.406488758679803,5.344633953903097,27.479874281003948,2.8637398307041897,8.61553576304915,0.9791154568778218,1.5163307733783724,0.4018053875403808,0.2390059632191033,1.5145780193357012,1.3896314831530603,31.139046198755338,453.62905881195877,28.73134965033821,173.92442249322733,9.524053823882046,18.609551286750133,5.8769919870637395,24.988429926509944,7.080181108242241,17.91465574905786,3.025328060416556,17.74015559106077,0.5408970055399329,0.44505159235809705,0.804816032859538,0.5639816914607688,1.2395042573402182,0.5737900100945789,28.480604457674104,161.13234402390006,105.51188238154458,57.58830849210952,40.12323719888761,66.19023188862054,6.2579472224737485,28.401423004531175,6.932932391227609,13.949835585338088,2.610361689211574,18.355617685890607,0.7515616584054673,0.5659577469088485,0.6315697655956471,0.3103727438363117,1.5725521219595855,0.6367853268200385,27.689802338405208,157.15703335796516,42.90250014205005,45.63635306206109,46.01741400871487,21.28599322235707,6.075430375647356,28.57567946364477,1.030362712764773,0.6410445664072195,7.007011892304894,30.072353330781485,0.3324959177230562,0.05564172444402653,1.4464261018573332,1.7111039279753082,0.23618306516790608,0.029994078891269205,31.983524164442198,280.58289110998345,40.96278584727925,39.69709188698811,36.180182985837945,540.7021524951025,5.819444052062064,43.12882123346373,1.221176002533188,2.661429428996707,7.603991286201372,19.764487194658127,0.24727114421239596,0.07779953843514018,1.309908331585379,1.1697208978545033,0.17555363017280048,0.03426160550252905,29.85394385111266,92.08248911203567,14.85309334617952,20.43744806630244,27.721588784900817,341.80974603939484,10.519637366581852,101.57895335145626,2.0903199034751374,4.786867301370485,6.3105069734773584,18.195952968743054,0.529655182245316,0.16084705117631568,2.22130096820569,2.895628215896936,0.4365010561102497,0.13097407914674492,32.505066990111416,204.38226269055656,26.83114049974726,55.82112071874438,26.953098277854657,101.5711980676817,1264.0,2745.1666666666665,2.0,0.0,4.0,0.0,1.0,0.0,1
40,3.914781993831307,16.606140752775314,6.022249736324035,33.83491690832719,7.622935493512707,83.49061361218912,1.6636655691661228,1.858518720650964,1.0223861558373133,0.7866654928498266,0.7129771120509246,0.3883794176524329,13.753032223583915,58.44515322106427,30.614118855302504,230.67612791456438,38.50886726017156,273.73053948963224,4.314370525229043,27.617636503932854,5.913791669599547,58.56890994494222,9.13462680016351,72.961810905555,1.9218552261359414,4.340700042477494,0.7817489524283163,0.8938578867259013,1.9577819141996664,1.9331737317128215,8.857796159403101,37.326832408839536,32.9348784072623,280.65940524501076,37.43029302811425,329.28398694454245,4.794978801222796,29.052809795939275,4.119490202001774,11.543075422590505,7.966111647026891,30.407260380117286,1.4380940990856956,1.323736212797152,0.8694816191901983,0.926963602746943,0.5779073182712129,0.3378510145794638,14.152223890163622,232.06946104566686,34.34647864399694,215.1257632838036,10.848931923261663,34.65843110096394,4.801685277075451,36.01588464945758,3.9268250920146044,54.27197631357495,8.137461401419252,34.122419872919785,1.341004780012579,5.002323031355878,1.179042773475634,1.048886568752339,1.1705166200350825,1.7581981307117192,19.746025002710727,171.10852602130535,30.691036141544416,136.11185066405872,76.0943001383576,365.1628222733089,5.326148687887587,30.182252136148346,7.860219542245838,34.356429713150696,3.830152719080942,10.293845585487224,1.3103522498402436,1.5399913541988575,1.1881669483273625,1.6108403339503718,1.184257461050093,2.2019223673147987,17.914587263408947,208.6775617987161,22.72840204340977,29.245213763675203,47.85249972475168,175.30863994282132,5.135584675166653,22.810423360718787,7.485408954980953,29.723403580457934,4.760824290840007,24.337832735273075,1.1952448597471153,1.3390593241612334,1.0086929084017915,1.1076162435494816,0.9889519567220622,0.7903038709461536,12.802526767679506,123.4087104765037,15.425802661816059,141.86380885903856,42.88697036195197,166.15043112177278,6.132673035133939,35.69735885975903,8.157563766392554,80.61476664808355,4.386295781362781,31.714594549843408,1.7868810170716014,1.7967288554690615,1.7996111192961752,2.796685270803874,1.2032089814831868,2.055320448869157,21.68515766309111,218.27628666436547,11.325408872319848,32.26850765218199,28.937576162222342,166.53598346928305,963.0,2745.1666666666665,4.0,0.0,6.0,0.0,2.0,0.0,1
41,6.748343515894839,79.96320534217229,6.021748856533298,61.24108873827545,10.718206237322388,65.44389323519303,1.2126108355027783,1.6054106064072986,1.538030132395344,2.538326869022082,0.9648506756992856,1.3638363652609347,19.776904692472016,394.33863884943435,12.862806468708081,39.269616874444644,42.15305361736216,323.5003119770579,5.36115363180555,15.763342368099469,5.498308663333648,51.170111834396344,6.48659969922361,16.20426603288768,0.9806851808741324,0.8771636840937544,0.6151768188738362,0.3430634936838844,1.2930183563566668,1.6705532175028404,16.204344365766364,176.06968772763537,50.54240345823172,206.62285503474172,28.584308815348216,237.88995154014017,5.346642842140687,46.35019275215137,4.256601700699472,28.373583041650935,9.784118066011871,33.948511986133155,1.6304987553939305,2.7991085115638197,1.2664093570462145,2.47459513577535,1.1170621323601846,1.8346240263933389,18.078947701095217,259.2602176330478,58.31402644794949,163.68204568743965,73.06633192663034,689.0152348168583,5.769394684408004,26.605167216067517,4.811915547998612,22.84885712490121,7.510117271740134,13.823985432072748,1.3560210826333345,1.5109988944502744,1.1086682349505181,0.8205696326678209,1.1740791044089922,0.757194911090209,24.328911747063064,293.0246459885045,25.086664144505452,164.36392989701312,14.658042655465353,115.00898786790809,4.536362149873594,13.788762262922958,8.34569717375613,21.839629544344284,4.65304597718281,7.2260349666039225,1.0636149957307837,0.9392269043157746,0.9125955958544528,0.5404475414364075,1.1242673505967204,0.8313467439309206,16.740772041826617,74.62036282159727,82.05390765785512,776.5613805583541,57.36355915385715,496.9007912686046,4.973906569584217,22.760175214216407,7.091699072998532,37.932552717682604,6.122108985808837,19.194784735837782,1.5872309809416862,1.7818895473347396,1.1390879131462528,0.849037424263098,0.9401145241575738,0.8795366259706672,22.490960500516945,84.98979692223763,38.37790462852183,184.1535442782895,46.520165085133925,378.33732075062215,8.514490684628157,58.68497425391354,7.254385973496661,28.95611113327428,3.9492209716417017,10.487741007385171,1.1068925355684567,0.7517846136524069,1.6082905599466675,1.1307907007998645,1.4780671613507015,2.711228793571569,27.594449334711,223.87726691544037,30.69723248391191,782.0868210492765,19.757113733943758,99.30371181865122,1123.0,2745.1666666666665,9.0,0.0,5.0,0.0,2.0,0.0,1
42,6.1062825125261355,90.41019915870369,6.456685220668329,40.17717311354932,10.21516855922399,101.1720759946779,2.099613005696096,4.950745398603259,1.0691388680135576,1.0998050164047515,1.0778681787103286,2.2213879947065736,13.168799465697115,172.81230821001378,21.081624600110132,54.787291426715264,19.018775952887303,90.71621920974492,6.587304862082334,47.27606795860096,7.981639560826576,32.506245427244046,6.214551505627553,17.816051656480827,1.4536486152647634,3.0240748517468456,1.2971167675018804,1.6471403778101126,1.3962797191590894,1.8375777398996413,30.955336723538394,35.17454145541549,16.740000201193666,30.046583759400782,18.142796514277958,40.89797951367164,3.5278656063241196,6.163515210653534,5.081640660948023,61.61997213094078,9.255032852661245,45.2797128008307,1.581315656081974,2.520342834397793,1.158851091605894,3.1130499558170026,0.893627693116387,1.0046486211640313,10.878166002792549,102.06899937992847,32.205331459888434,228.31011121208732,80.19432628484063,34.31611670038997,6.500014730312383,62.52008993127159,6.291453987936289,49.63669877140113,8.335701641456858,21.59741641527056,1.7984380156563295,5.2823692684616415,0.9663896448344239,1.2670734521799185,1.3291748833214834,1.1214370579637578,18.491674734413294,79.47683064614851,5.140803153919911,20.476710519822173,22.951766955259757,367.9051188366471,4.354918702397475,9.405380394894548,8.071631505632599,55.26084300351495,4.669789431715714,17.002947697162206,1.3984360748088986,1.3337429873422966,1.049272547869619,2.275537116610734,0.9962086683095469,1.5652755544802606,17.172124495246134,231.54771694663287,81.74653484281255,317.0115012559827,28.344695112323233,149.12097158592044,6.123373762215616,44.80769894771656,7.031406858267046,48.98095123695253,4.575217691985942,8.140953790161625,0.9921767233731997,0.4746137837148227,0.8955362407048104,0.9423787980492234,1.3250482352167492,2.177816335099064,17.4826587513861,199.52127644421316,36.18199369986413,305.7878903201679,26.204674881795494,274.8515374879454,6.128663853984017,66.70862195490223,10.891757170963023,153.30071309090852,4.337525336246793,26.2363227005429,1.3986599795257888,3.0573768203825256,1.1916796484735708,0.8197582157843497,1.9048264813197786,7.114127705689495,21.17961106132407,218.6570814157214,51.491060901412645,1436.1951023783984,14.596830542739584,76.03900686251716,947.0,2745.1666666666665,5.0,0.0,5.0,0.0,1.0,0.0,1
43,5.902802551332449,18.33207385874407,7.500809098557872,31.37987823409945,2.555626844781456,8.814946095661249,0.5970832408555058,0.16632142603153358,0.6525182263020076,0.14510191857653154,2.6339407538974564,1.1037727529081616,27.873836052269567,254.67783087064097,43.37339204977889,155.10983887493057,5.119111530029971,13.890958738689182,6.622186428687191,25.085178862340413,8.659897131114704,88.19088720867354,2.333325075092391,10.550144955203358,0.8877652389182611,0.815584345456116,0.4390853952757309,0.4577298814834343,2.872402504055622,1.6286563778892047,28.65341303345248,326.11485626993965,31.12364368099534,145.32894797187848,8.250369441772692,13.857575478196635,8.155174952226778,23.248498599616987,5.244337850924355,18.922876308239644,1.4997861549638993,5.076937019456799,0.5174226195124384,0.179643919610262,0.35401471859379285,0.18103452238867546,1.8409772247528833,0.8875375147313266,50.91597052519493,322.91279680123273,91.24926492258989,573.305024537436,42.151474020099116,9.818470386631988,8.251717201747947,47.05804585951737,6.749016199075714,62.18375840510773,2.3892509031871034,8.371382707018437,1.225950055270718,0.8669580568947273,0.5725457405527405,0.317835953390448,1.7732963269133923,1.2457679564312347,36.53265833722952,261.4412514456,28.66955673497026,171.99437052224908,42.70861294783281,30.82243823088301,4.592299797452484,51.99099331210497,0.9763037058272661,1.0503787468390915,8.146701292767709,10.877231340183897,0.3268320554589534,0.054509340457710206,1.867805481770009,3.5539652085337248,0.23903897766034568,0.034763964164326415,30.298054257809127,158.8912035601366,41.74716850407216,13.794582068633835,27.430016259132827,587.9864916115018,4.607483855093629,43.54239152879125,1.4222752279010267,1.2611278455276913,8.869578040436487,12.204526486409073,0.21922486677292466,0.06284277232741467,1.5416377702835968,3.473230200609379,0.33226699974402035,0.14116581599143802,21.413762170306885,159.01292529438626,16.774298717962445,15.92238240541472,21.336636949145333,257.3767910445223,6.929598175277367,53.43570115666609,2.447316460182777,8.860431145910056,9.497876656648204,18.400669034347967,0.29066994374596067,0.062189050202278426,1.8510539268004549,1.020769336988861,0.32603308243821094,0.19561554651193916,18.00962554976519,317.5279945795711,31.219735013845877,48.58462757153737,22.792690104542515,81.5448311460574,1075.0,2745.1666666666665,6.0,0.0,4.0,0.0,3.0,0.0,1
44,3.7874111377567217,10.283874658020087,4.862681549783405,10.982924407557205,6.877576508574723,50.702514956847345,1.4216602483624523,3.1915619996230733,0.865957486104588,0.707957636866222,1.0778057506277088,1.1809827209750843,9.978280618457504,85.64965876444161,28.248578368053252,202.44931333352952,50.13236291369022,60.88396840042113,5.697846208673321,11.115968067888558,6.840679352537045,25.165119597860233,4.290469640320507,21.567207407588636,0.667347041612172,0.8259754431023659,0.6060185317867899,0.46659819704050126,1.3401256380242537,0.45548272676058255,13.937662981985682,74.7899724592004,29.434745704271517,36.072303871618864,34.6037956364247,59.78066404622335,8.051961313223066,20.120890893978228,2.6446350183934797,36.74362327464497,6.3853330054006525,78.53563223837317,1.0328523903277649,7.640524001817093,1.2163362637450352,2.910967315513324,0.8544060861413979,0.9901284756953628,37.16014882872776,277.29496705679804,65.81518225906962,190.82521368925373,81.00728906452326,86.29532301246425,9.125323130774893,19.41439082711525,5.137725146775499,43.87036844903676,2.865131570381313,14.776242007051357,1.1134352308391846,1.2265047356768828,0.45480435821070153,0.22214495204058787,1.131404781621464,0.5428973009589321,29.441246027445924,283.113120419665,14.66150907060718,96.82728490296999,21.51542450973342,42.67613668415904,4.122485785890443,33.39724472486273,3.151884107624093,22.02925104537188,9.193402605820756,7.923821101910688,0.7234533428888541,0.6195775778995943,1.1343810494348552,2.0779175773033858,0.6061432725230221,0.4853902411335771,25.06479436126203,94.14485821522368,71.78254779794598,62.96811937481116,13.85244849770335,363.1486078500441,6.260643720997302,73.62577849274841,3.6054866460887767,14.687995801641065,8.603347312803097,10.934800234375519,0.7791319911198392,0.9700072609031907,1.4174351155325688,2.4628526348770583,0.7597502454232877,0.6080781969069513,15.775124025525967,267.608022200263,31.032297366231845,48.83862179173327,18.206619818236945,258.74605830832473,7.006430552891604,47.832178514314336,3.9529395885765553,11.519719040376632,8.838946140360973,11.437728229419426,0.8047590497294274,0.5694570767603693,1.3043928485137324,0.5443211723587617,0.8173735925004154,0.8225802193739274,17.2243020738686,213.3693767578932,41.249642161374595,99.81332631798509,17.862503963260195,39.31945069649965,1113.0,2745.1666666666665,7.0,0.0,4.0,0.0,1.0,0.0,1
45,9.701894191088597,1.4881466915518747E-4,0.11964643631356855,1.537087068553264E-4,1.5383127150614617,1.694118745350739E-4,0.21942399952622407,3.4691464794977544E-6,0.057659988842122464,2.2254070273941638E-5,0.014126469589543441,1.9725393236270737E-5,51.46066220952661,0.04119233921883522,12.707877459447028,0.06744239045187927,8.881073198265792,0.06306542122103728,9.66343392324711,1.2501871277684166E-4,0.7839335562115874,3.726076980240063E-4,1.0467552888459264,1.5185340287268356E-4,0.03792895021647709,6.0729261141622176E-5,0.010163281773132122,2.6326617022539916E-5,0.02070320990111535,5.357731241424379E-5,46.14256636477307,0.09743767386549657,19.865262985229492,0.05001695439859669,0.7338118540195141,0.057112401114622825,9.648824481015707,1.859321487101827E-4,0.3134226691986316,7.057756935092324E-4,1.6141132386349841,2.298051692425219E-4,0.029638022072458876,6.554094124685883E-5,0.014882259714051833,3.249012378741912E-5,0.019906751408110802,2.3769335634688316E-4,41.818733426088784,0.4429485932481988,29.06283833835665,2.0845539330856706,54.28404012437684,0.8124931258941609,9.661960754605287,2.380244128509673E-4,0.18404460233219422,0.0010895427644638214,0.9528611042222924,2.3064180695261832E-4,0.19736061899701535,5.462733040990689E-5,0.15789211035104087,3.2339565072048625E-5,0.016963011132378275,2.759602186919901E-4,38.83069739157324,0.5117506479977392,47.752597682383836,1.3999392346493378,40.34048394471901,0.6970664807260865,9.690197707539763,2.126278579746947E-4,0.2387425468936151,1.5528913737035638E-4,0.7376740288339267,3.6172123985497655E-4,0.17817099491206323,4.100631617961258E-5,0.0949408840079334,1.1221603778621879E-4,0.019670309345829636,2.1470028079186596E-4,37.684362864626046,0.5122770100559263,44.469522823944935,0.6289971795468078,62.233686457681394,0.5190917679518758,9.686335231717779,4.939243468322699E-4,0.9741362178523237,0.0016696570202683015,0.4031147180505879,0.0024104920412972206,0.17233326018515213,2.0413979987427767E-4,0.21036454162544968,1.8265491532201401E-4,0.035534784509105743,4.1796343928940643E-4,35.032794299046635,9.432126713360562,19.09404243026649,12.996423212739753,39.409116787146466,11.480772944878032,9.843556920467819,0.007900397093135093,0.48155503263131033,0.005675841684877392,0.6644873978024688,0.0016670537852625526,0.14198085056484075,7.660471574043542E-4,1.1048048201186882,7.119994251186106E-4,0.02022597785394006,2.926851553640502E-4,38.957695860889075,9.625701545353447,25.54435344822499,16.9235644073377,32.59244061043249,10.713327810592727,275.0,2745.1666666666665,1.0,0.0,6.0,0.0,3.0,0.0,2
46,9.33252225001214,0.04831793614524867,2.0686285755910925,0.3272489663102695,2.034997645333327,0.8618519237350003,0.34279508736931324,0.034533570300994416,0.14496699476631317,0.015348786615990713,0.13115861291002026,0.010282573616553093,39.7220722219562,4.200402264798903,6.624939217751856,1.8124857637128142,2.305558292555381,2.566849005703649,8.903066835350753,0.05545470943727377,2.8774525598926437,0.4635320148191228,2.985928979367841,0.2590187565355776,0.07756981189603575,0.0036976794506572456,0.09606724859823766,0.008377639242471507,0.17526487926232182,0.008491384285725052,2.9132210030143266,3.638720856991043,3.850486395582145,5.918933581441344,30.245289765668836,1.3670157157777887,3.5746809168360505,9.920629009128362,7.888287598256907,3.858939682220013,2.7309393411841842,1.0517007396026516,0.2860282149567212,0.04865388751178568,0.24663276724949562,0.01996634620336313,0.8181654208678063,0.2172581686157972,17.0162304448818,90.63051179527534,88.40893343930745,166.1688283515208,63.66716547170397,9.918667631335127,3.8432926324335086,11.139888253604623,7.417764838887842,5.892191386865511,3.414680566576963,0.8804255342501345,0.38038733230198823,0.05756460646537613,0.2782221052622634,0.036951086461323834,0.8402283979137299,0.2947106232271647,22.93207047591552,169.88815157616395,51.690000465644,985.6595363717175,49.93351719260875,68.50097229979858,3.676103950864044,3.974900233842741,0.47700191153668753,0.1058938063648282,9.180999927099238,3.0690716209889577,0.23186986131827703,0.011482111059932501,1.7257656978227156,0.5337067108907514,0.271916751700932,0.02979139503794773,20.06791351340423,127.40226240937572,60.0266114967304,5.231429243679677,94.04655359594861,23.385849384151218,7.077601522371914,1.8312722175628733,0.465477057063736,0.1403225192466205,6.427038985392007,13.882228417657082,0.16504850286414116,0.013564738407064578,1.2186853638772972,0.29998562499063824,0.12288681228287539,0.0069465136809982375,25.924641087568926,68.70323157153148,36.02781052352315,14.696429469545432,57.427686048476076,106.31163340956832,9.488669021353537,14.416753497873968,0.9598306066958614,0.6378933168507095,3.2201618038694173,3.118407704479875,0.27212454235883565,0.027415734232600655,1.2965788211652916,0.8037900654788833,0.18003365233700044,0.01928520884168117,36.66736328799421,24.251167094002888,40.780139596422735,25.078148107048154,9.946181700127559,61.99310377707006,906.0,2745.1666666666665,10.0,0.0,7.0,0.0,1.0,0.0,2
47,10.834212501075386,19.893918796431404,3.6371945483013164,23.862499855073015,1.7651905337302272,2.572913337709252,0.6221963371515521,0.21319020619253443,0.2244920283626734,0.052737602777877673,1.4572330200247137,2.368444819011229,50.67740176922709,73.8954430377419,15.437311922647677,158.25686617171144,33.76873485291202,2.4800010708380835,10.379004449146228,21.17534022561103,4.216139581352884,31.532469558058956,3.016961611766183,10.34842526413639,0.6147063502743428,0.31887981490686246,0.46435910278097703,0.17811338579646294,1.48838871735462,1.6455531712170617,45.070134199785265,70.57702769276287,24.222370014006263,281.3698154511238,35.943413592175226,18.099876717737065,9.8073658310906,12.658121392467717,3.451430592809428,15.70877950376564,1.8869838687997744,1.9247458358024532,0.6212354918031114,0.23925551893630606,0.308591099036761,0.07181441243509973,0.5522989278574968,0.19707018661966957,37.84849050953902,9.830886037198363,49.8465704311982,44.26084212415387,14.760528517032855,7.678181039502955,9.872548078305154,14.374893915905382,3.7129899678720952,9.19122897068018,1.8792463089262255,2.2425546738715827,0.5730544766514094,0.13224517986408643,0.3551490610485989,0.045366298275680936,0.5077642035665433,0.21471046662540647,29.300234494288322,7.394873621383738,21.71863819354147,38.34904751068754,80.2442982289014,2.991479395891547,9.994038054956256,14.037775057701225,1.436763783762468,1.0480962563971106,1.0499141641258318,0.8059828529375936,0.3255794487188658,0.04513810518889863,0.316047253483361,0.046957916992384954,0.35419638495948885,0.07839751271622938,31.03493122501268,1.3824793922541023,4.577284249152926,8.66796491199063,39.3720934535917,2.738911340039268,10.01656877138338,12.40026265717505,1.0650639504944206,0.8945690388703091,1.676116708686668,0.7142071433835667,0.25137625464782676,0.033402032249288,0.20411078014474707,0.04279324748330572,0.17081818765335463,0.01481506717594824,26.36589386449993,11.259578865360554,18.801138877868652,14.336259618444975,14.640214042768953,10.863883546615085,9.386880337204063,8.175947328620499,1.0684240388115405,0.48915714592530046,3.853499246250519,3.150808362356172,0.1836563596110894,0.013987229137278227,1.0857603885233402,0.30145570228222823,0.13559178462334348,0.010458527472008637,29.121276233736324,13.910610143630242,21.484556767163355,18.11331307930083,7.057677343425994,25.77644818657213,1990.0,2745.1666666666665,6.0,0.0,2.0,0.0,3.0,0.0,2
