,mean_rankleAccelerationX,var_rankleAccelerationX,mean_rankleAccelerationY,var_rankleAccelerationY,mean_rankleAccelerationZ,var_rankleAccelerationZ,mean_rankleAngularVelocityX,var_rankleAngularVelocityX,mean_rankleAngularVelocityY,var_rankleAngularVelocityY,mean_rankleAngularVelocityZ,var_rankleAngularVelocityZ,mean_rankleMagneticFieldX,var_rankleMagneticFieldX,mean_rankleMagneticFieldY,var_rankleMagneticFieldY,mean_rankleMagneticFieldZ,var_rankleMagneticFieldZ,mean_lankleAccelerationX,var_lankleAccelerationX,mean_lankleAccelerationY,var_lankleAccelerationY,mean_lankleAccelerationZ,var_lankleAccelerationZ,mean_lankleAngularVelocityX,var_lankleAngularVelocityX,mean_lankleAngularVelocityY,var_lankleAngularVelocityY,mean_lankleAngularVelocityZ,var_lankleAngularVelocityZ,mean_lankleMagneticFieldX,var_lankleMagneticFieldX,mean_lankleMagneticFieldY,var_lankleMagneticFieldY,mean_lankleMagneticFieldZ,var_lankleMagneticFieldZ,mean_rthighAccelerationX,var_rthighAccelerationX,mean_rthighAccelerationY,var_rthighAccelerationY,mean_rthighAccelerationZ,var_rthighAccelerationZ,mean_rthighAngularVelocityX,var_rthighAngularVelocityX,mean_rthighAngularVelocityY,var_rthighAngularVelocityY,mean_rthighAngularVelocityZ,var_rthighAngularVelocityZ,mean_rthighMagneticFieldX,var_rthighMagneticFieldX,mean_rthighMagneticFieldY,var_rthighMagneticFieldY,mean_rthighMagneticFieldZ,var_rthighMagneticFieldZ,mean_lthighAccelerationX,var_lthighAccelerationX,mean_lthighAccelerationY,var_lthighAccelerationY,mean_lthighAccelerationZ,var_lthighAccelerationZ,mean_lthighAngularVelocityX,var_lthighAngularVelocityX,mean_lthighAngularVelocityY,var_lthighAngularVelocityY,mean_lthighAngularVelocityZ,var_lthighAngularVelocityZ,mean_lthighMagneticFieldX,var_lthighMagneticFieldX,mean_lthighMagneticFieldY,var_lthighMagneticFieldY,mean_lthighMagneticFieldZ,var_lthighMagneticFieldZ,mean_headAccelerationX,var_headAccelerationX,mean_headAccelerationY,var_headAccelerationY,mean_headAccelerationZ,var_headAccelerationZ,mean_headAngularVelocityX,var_headAngularVelocityX,mean_headAngularVelocityY,var_headAngularVelocityY,mean_headAngularVelocityZ,var_headAngularVelocityZ,mean_headMagneticFieldX,var_headMagneticFieldX,mean_headMagneticFieldY,var_headMagneticFieldY,mean_headMagneticFieldZ,var_headMagneticFieldZ,mean_sternumAccelerationX,var_sternumAccelerationX,mean_sternumAccelerationY,var_sternumAccelerationY,mean_sternumAccelerationZ,var_sternumAccelerationZ,mean_sternumAngularVelocityX,var_sternumAngularVelocityX,mean_sternumAngularVelocityY,var_sternumAngularVelocityY,mean_sternumAngularVelocityZ,var_sternumAngularVelocityZ,mean_sternumMagneticFieldX,var_sternumMagneticFieldX,mean_sternumMagneticFieldY,var_sternumMagneticFieldY,mean_sternumMagneticFieldZ,var_sternumMagneticFieldZ,mean_waistAccelerationX,var_waistAccelerationX,mean_waistAccelerationY,var_waistAccelerationY,mean_waistAccelerationZ,var_waistAccelerationZ,mean_waistAngularVelocityX,var_waistAngularVelocityX,mean_waistAngularVelocityY,var_waistAngularVelocityY,mean_waistAngularVelocityZ,var_waistAngularVelocityZ,mean_waistMagneticFieldX,var_waistMagneticFieldX,mean_waistMagneticFieldY,var_waistMagneticFieldY,mean_waistMagneticFieldZ,var_waistMagneticFieldZ,mean_id,var_id,mean_subject,var_subject,mean_category,var_category,mean_trial,var_trial,class_label
0,8.83628551255573,12.772053934672176,3.6362299247960412,4.7761362801519605,2.480725078720384,1.8968632787606639,0.7341622231308802,0.22453982384937177,0.32588498439247265,0.0417611913649738,1.950325701966851,1.1904796459269908,46.743370339890156,56.97887137446556,23.954876624848232,115.35377924541238,21.629773888706175,6.48689660167476,10.46755568252122,20.24043349673146,3.7290825378303687,21.01008488428658,2.8232488915447362,3.6186806502661395,0.5817918664927803,0.5895888511453135,0.46562383336607704,0.17588004809493443,1.4064966852137866,1.7224460593178716,49.50256152192423,17.97621959479473,6.088215243471556,30.87873237153015,33.40629995361832,48.07588224077759,8.061396504236647,8.905398747118562,4.545074944161186,8.412082575243751,1.2103188898306616,1.3955320282553767,0.6310414071387249,0.1361403513078761,0.44371860402767077,0.0937794932500703,0.8560411118140275,0.26874133112713605,29.647153680974785,36.46379364457023,73.29714341597123,162.34854696351186,35.19558901826212,1.7308144400311358,9.100151322104715,24.020282272836287,4.324863972773483,40.100938647877726,2.4543281093486082,8.357978202081746,0.843181131892522,0.7698649136592264,0.537914205725451,0.10022221234035515,0.5797729141440643,0.14396368165025994,29.812939131555478,1.535765494546989,8.692044726457478,49.47122215060663,61.30233058456547,4.186208404010695,9.019971615026805,15.94757822188441,1.150358689648738,0.9513425577968655,0.8944491150958295,2.4943130773712743,0.31940241281158666,0.05348325549942638,0.3905363566403793,0.14904446726942605,0.3124977348888031,0.0416036796292487,43.97607759207733,7.7944187496059225,16.161522699781685,2.4894602396747447,33.863014583745276,23.23992905361401,9.064149005353944,9.734884049875578,0.7985514187723521,0.9858774203955675,0.8239764566263876,0.7245186191551077,0.34662644718273367,0.054058699034708765,0.2405286947080542,0.020798056096201445,0.11672898350968526,0.015942959191310023,37.243416904417934,15.89195446944569,10.530713021755219,13.005178886627364,16.50876822747475,25.2577085209841,8.336260649783553,8.741845295503108,0.7461505790264154,0.10690984132511486,4.143146260710787,2.10869481865003,0.2218647442030728,0.02258972843057827,1.095816628992065,0.08232923751826751,0.11944115662193003,0.00781657688466167,47.25679318766949,10.706676470846757,3.445449627874311,6.762707114386619,28.52738147924754,18.24372331117588,596.0,1230.1666666666667,1.0,0.0,2.0,0.0,2.0,0.0,0
1,9.703754030968533,3.7570201624919425E-5,0.22330154552440012,1.309348617807069E-4,1.5270260267021243,7.71924350922687E-5,0.24676736376502298,1.9389148695869826E-5,0.026439074473070704,2.0155949027641333E-5,0.012339710777967952,2.2402615393317004E-5,45.568080271571134,0.04213787297057257,6.6178708273517195,0.061863227437623215,7.326354519394804,0.06870779344862563,9.526208570180845,3.9037884429103954E-5,0.490379974122875,4.3652035907584656E-4,1.9977199617496206,7.822618472339568E-5,0.026665239602573648,6.031835344355035E-5,0.006455239661380433,1.571959304368435E-5,0.026580479273126144,5.378692465153241E-5,35.75761845486223,0.06531576732230508,26.63725291795967,0.06732960893934391,5.072066496226413,0.07487766264920488,9.685947725595522,1.3037718569671114E-4,0.17218797463030855,6.953854973579889E-4,1.2390185811302878,1.5235653588945329E-4,0.05394459491179995,6.801044792672004E-5,0.005405148750251401,1.69312296414547E-5,0.020941487726950748,2.5684177309789316E-4,39.68809071060055,0.5552614517562471,14.938274454479375,2.677489164324883,43.78495823253285,0.5556127969721274,9.438016954532339,1.6464305859905312E-4,1.9949274230594478,7.125442141029961E-4,1.0057030270907505,2.9243800762341227E-4,0.19863424000661234,7.607677543442168E-5,0.21485942146502252,7.380856466889715E-5,0.02083886770650837,2.1131773782261272E-4,36.89450810960502,0.6071064859424292,49.64108846995456,1.203468517180863,37.75603485107422,0.6013024559477321,7.863713958046653,2.805316300130681E-4,0.14238595100473767,1.5043483732618716E-4,5.802394252178098,2.1242437749318803E-4,0.22430127218735119,3.201584993993642E-5,0.11687545466028955,5.6488728060768146E-5,0.020198132325163928,2.3406840963107825E-4,17.41507981040261,0.33141706354187234,39.01212376996505,0.8201747202645889,83.95566804743996,0.4525057795508165,9.408308226214952,7.600516464802056E-4,0.06548533871123367,3.281692323491266E-4,2.304474631616892,0.0027050488560370818,0.03984641324147132,2.3764290545812364E-4,0.20317312373110086,9.178652773205969E-5,0.03521785940032083,3.2676439781004457E-4,38.386802121627426,10.126037506743362,12.054507289051024,13.37451912490266,34.56463139116271,11.696103652494205,8.708866899663752,0.0025688283358401196,0.885725056336931,0.0015979083807216691,4.408822032045727,5.677850177232506E-4,0.16209688450186704,1.284502955697761E-4,1.1994855394048138,1.1869340341933869E-4,0.017142958611958036,2.2198383819383704E-4,39.6014090136063,10.81822624691456,8.740292197047186,15.16610176630757,16.192313119399646,11.841500868288596,864.0,1230.1666666666667,9.0,0.0,8.0,0.0,3.0,0.0,0
2,9.38799612187157,0.03487633591806034,1.8663622485165876,1.0017501814359937,2.152685291510968,0.1052615980597262,0.24581201729356997,0.02219737492144899,0.0993475042852563,0.0038901530021597753,0.3533580076451802,0.02294888238417717,32.6275805165945,0.3390127154224612,7.318740911720213,1.2238062842546715,31.442465805810347,0.329045199185997,9.409445920266396,0.0811940882662589,2.2907668454187715,0.9052418808455389,1.3867538847213934,0.07739387817439365,0.21554044613995674,0.018188825539627262,0.07964713234754572,0.002044120005236346,0.38744178343533486,0.03726201678429452,6.858336566893523,5.347266131817767,1.494453328700105,1.0358373287135936,23.601235098090054,0.6701883200474079,2.7184285948838083,4.750398492309828,9.501805880838189,1.386589078490924,0.5171296048663125,0.18164646724326328,0.16218729840191312,0.0174943315225161,0.11196441321887753,0.005648114616830997,0.8560174712218529,0.16865415307577677,14.290658397369148,45.38778480754929,100.62706586349108,73.89610179720266,52.61516760203464,6.470314513471387,2.5252924625615565,4.308989276936711,9.224638513297089,1.4207003016416884,2.408836102682697,0.6269331816591712,0.37404037949923535,0.041442251387654484,0.122224205950937,0.005050035858247593,0.7923415801988161,0.169614582099323,9.92839652774009,42.61453560499986,24.016001843223886,54.05235025471143,7.4257747882222835,42.591505084674466,7.0720543349084775,3.0717469772074515,0.41278225632792354,0.09935415355982526,6.9825965402540096,7.554539472651983,0.21327908998603012,0.024214696649753408,0.765667039222009,0.16530911305958879,0.11572936367270467,0.009909092120152464,27.94573547426334,63.76441428993038,64.32235944763688,2.2904589626139225,79.28674625365203,65.39652345911112,9.310968804950557,2.0835207172841197,0.30178089243213624,0.05298265596970767,4.241213277422954,6.807777049518394,0.0990232643139768,0.005392913956784619,0.5513061295332741,0.09513911792581146,0.06306215682671182,0.001858498399604731,31.506659294948104,14.83231933183953,33.350949768192514,10.553822578670072,46.939556925749976,61.30629260732265,9.65121908030234,2.8345497933748205,0.6377395135812338,0.25968114163598477,4.3966735710413,5.122580656995159,0.14780719861511357,0.008823483904994323,0.6591095785140868,0.1865628591357821,0.22754592454053216,0.024707896191330035,36.116806518933004,13.5093274710301,50.59234934404862,26.251846202411166,28.8775471025262,79.68365591265636,888.0,1230.1666666666667,4.0,0.0,4.0,0.0,3.0,0.0,0
3,9.783882038652404,1.8324130406960275E-4,0.813071836124767,0.003739589282317483,0.3857657197585776,9.35495410049917E-4,0.2840839259880633,0.0017848762409469615,0.027188297476588696,8.660561707578132E-5,0.028625446294765336,1.5296598669416645E-4,49.714556985650184,0.04844201767062271,15.043041583920314,0.11976828883190997,8.919688516411899,0.08889738919130127,9.802514454549994,9.451962527356956E-5,0.11456043799677171,0.0016809711547175837,0.30059521528314953,3.136114584007717E-4,0.05879005749732995,1.0703838517229192E-4,0.006003305777062639,2.2157473690545577E-5,0.011954214829183761,6.671475133568335E-5,38.63544256036932,0.054378691224943515,33.62396807710001,0.06661724785932534,12.739070908097196,0.06609153985756785,9.620633345990141,4.5792676490174057E-4,0.9252237120935739,0.007046887841944318,1.5363523270473007,0.0011008751301268042,0.07985861143405157,0.0013100853684795161,0.01210564467623014,4.142047983536189E-5,0.03252883461517597,4.807690394645173E-4,37.791699464656105,0.5363011608399346,5.270098508882128,1.376019952942221,44.57861643389237,0.7135963877863511,9.611021396542384,2.903789370086141E-4,0.08033265290042955,0.002767825350044821,1.2225424376401035,0.0016723501749008032,0.21398518191388816,2.585882269931473E-4,0.21766762780256507,7.648620217832292E-5,0.019376694209381075,2.0975005505277942E-4,34.66885221497086,0.5371273634757824,61.552681820451724,1.5238840731519259,40.143811375641626,0.4801117953268206,9.379336435932759,3.570161425551071E-4,0.8288268762186539,9.562567238813706E-4,2.3305813852420525,0.0033311144610494938,0.2281624135399653,1.6421791946502704E-4,0.1284354878974355,1.3460101976967394E-4,0.01859373565039728,1.806580661642383E-4,30.93416980081353,0.43968133044830443,47.09996801959581,1.02566591849851,69.66556984136912,0.3746408454315453,9.593894974259305,0.0012698769934859674,0.22957092554362352,0.00365483312175167,1.390633660899706,0.011896287627293781,0.07452690910354588,0.002084338315810385,0.19152033070394817,5.878090368263678E-4,0.03991326442265437,5.519492110150223E-4,33.87275572847729,9.112450020462889,15.64994295766531,13.474426112289835,36.36390255699473,8.29049240662472,9.4853202804061,0.017956217949337484,0.5147969425417298,0.09303735156402997,2.5073606790589893,0.01191030124340022,0.3763981234928793,0.02630568500996586,1.1816068611854365,0.003646634751942592,0.13839201621272532,0.014013324162353206,39.48816769182189,9.598789700488558,29.39337088844993,27.342727291821255,21.343691683997793,14.079915322029189,293.0,1230.1666666666667,4.0,0.0,8.0,0.0,3.0,0.0,0
4,10.744176197335246,36.5066909086418,3.774757261380307,38.89154759081534,3.2268747303111494,4.0395407297623835,0.8070111796461923,0.49538194650878975,0.7552005564447585,0.6037588693986866,2.358030208255634,3.1562133699651524,42.772731907111556,121.95950240267626,21.556539473947414,234.27607475130543,9.140789948988798,7.249611279778875,10.110351516195566,20.792579955491203,1.7541903316251133,5.132945221475662,2.9914291642667834,1.7810524126032747,0.6798416824774693,0.3649297740124506,0.577789570604069,0.24172155919177934,2.1379874604792635,3.4496514532356617,40.03212074405891,83.71719234303922,37.80677333548049,111.06795395737541,6.83224339530734,13.052442736576046,9.963320411926459,15.498892811544014,4.01410796485595,26.150487708109207,2.4196071594584088,6.021285018406788,1.1102586136245716,0.696793024792098,0.5261925950065286,0.1756181341810018,1.4967177926200974,0.5326907782399749,41.66967338372853,6.369190437718094,17.98039336539497,71.99993329498044,46.94987122086454,16.38597196864725,9.45997952232676,3.585464105663575,3.0640026532837057,5.976980568397988,2.033504882196257,1.0679713381078337,0.6016946936609254,0.26859045195092174,0.37160933168589577,0.0863812661006378,1.2532841483013675,0.4102501407186512,39.336204717967135,2.342545763813023,47.16219394463153,145.62177137444888,41.11460822869923,14.499692320674106,9.313693018984203,5.045070640343235,1.839258926783011,1.8293317951534211,1.610818221949595,1.31874805928267,0.5701036228882995,0.09923943115038905,0.2541044466928694,0.04721849827534319,0.27870306587193067,0.05539047416473588,38.673555452961565,0.4118815742736481,40.58645494319191,6.481017987856404,53.49078942921536,1.0399554206936676,9.3712586844263,4.595836040775101,0.6696997591186592,0.2932115030441658,0.8718040558193957,0.531606353734424,0.3278566950370273,0.034384183938107826,0.25761055414688055,0.02889492131709293,0.11492757892775135,0.004604785948223996,31.63916442808041,12.913003068112804,15.932757015070639,18.357668467621284,42.378050528281975,10.832836979191363,9.342230052002206,1.9697774278549969,0.7798045527282332,0.4144369858064376,2.073263649974973,0.6253362513421377,0.11000374409808847,0.004406699820933349,1.2076378425290761,0.0720332320854062,0.18996562860706004,0.011735704038164449,38.977729308703715,9.885502301223196,15.612815454971692,13.303586608243382,27.06162626093084,9.240973232265418,1119.0,1230.1666666666667,3.0,0.0,5.0,0.0,1.0,0.0,0
5,9.401490923232776,25.70275499663666,3.6714713537318957,28.178044895717324,2.606519356675923,2.3908511166796433,0.8040118584763413,0.2668181584676164,0.373595959227917,0.04619863356217118,1.3561009736346805,0.7062044834773114,15.828452571364474,31.121877444537,8.797757550827727,26.178434807258117,9.71014285764911,26.390755833027278,10.034498937859023,21.982147972230266,5.549092299449219,100.67881580305367,3.24341678579361,6.190489124151699,0.6897609284369387,0.5650412866098158,0.5168690335819467,0.18937876449617483,1.3878210789467735,2.501386618862695,20.227158097196217,3.1765823570669953,11.83216215953354,39.28801023266945,11.101121590403485,16.96518930736521,10.186980397248071,8.606401326123416,1.6275349358916436,2.8470838822170617,1.4371859707228825,2.1479914530507296,0.7655702220176901,0.5104658560530214,0.3349520163552851,0.0754943012661364,1.4939761552228477,0.8375898433861462,18.063444925733833,9.177454811474531,28.74129672089884,65.1096423687763,53.800174713134766,60.60166205802893,9.656389969439546,10.429788986429644,4.160805641865927,8.214716458434332,2.481617127275787,1.6323536863599033,1.0345628028504612,0.9246429963270548,0.5119735711246483,0.04180387206886319,1.7155091257011594,0.6885060454657493,11.352501660339103,9.011462320146785,25.656310633194348,41.76687427130774,33.341047554961904,74.66179467514677,9.904727695402036,3.092754640499457,1.275430279368273,0.9501861172942893,1.53231614035331,1.9494938484163187,0.2613947350543362,0.04746975658628365,0.33813116513962344,0.03254053767783207,0.42821731361414284,0.02589209515583248,16.718413668230546,1.9903446356776657,54.37943598849714,44.87485347681109,48.05130824569828,29.749307234380506,9.851837201551957,4.266378077439125,1.060750924906605,0.7480362021650735,1.6957757960666309,0.504857287275063,0.21161266078033353,0.010416139339887292,0.35885425592572545,0.03356267149011859,0.11993257004636809,0.006911761972216338,17.920874918787934,12.225180660812084,25.27996229534307,12.989546567120998,37.01935933641166,23.86078036054205,9.864940186177403,3.574518274218821,1.2230799123952705,1.1146312885024077,1.945767147481934,0.386650489311372,0.1967859835196938,0.013133395108343746,1.1323807062196338,0.03295758981339397,0.15634116535036524,0.011434889467304376,24.81099450292666,16.617802200292672,31.95777428051657,20.53610866093222,26.63602794300426,15.736295146560401,1314.0,1230.1666666666667,3.0,0.0,1.0,0.0,1.0,0.0,0
6,10.659592315924069,28.102610703010733,5.703265260981996,20.657187479274388,4.332592570707818,7.81347091498236,0.8744866111708328,0.17923111920664817,0.6100606142874222,0.1641872875625515,1.988739130849188,1.8970748297030764,31.07130386415592,87.2112989555247,16.61446004662632,43.96135228217432,6.661387688734314,11.043438342051273,10.6096074357167,40.458900531880566,5.58038563389054,27.247318834850315,4.213514837905888,10.972498106108253,0.7743064033845055,0.3277892089742126,0.893184099431065,0.35559439494959894,2.1650254264597066,2.3575669313918084,31.433926542928397,147.0722054005336,33.90254421076499,134.85184284406566,19.788631888829972,109.49017103647394,9.3561611017905,10.317339135332462,5.005674282442932,10.684142127909682,2.898336381335889,3.242898903882358,0.5663689928945185,0.19873221221210507,0.3132390998677189,0.08876076050336272,1.0584521585592446,1.025865132910058,21.938690689969654,12.721755320397332,39.390957966323725,49.26148430906504,44.780315178484955,22.702076561190907,8.413448585951624,11.09548318919943,7.85373542220755,46.17214054910699,2.833942585751753,5.541968633603687,0.7429380255524254,0.3079887997905579,0.43707585262619575,0.06600204960401147,1.0996188501065427,0.9184153711498194,29.878960554264793,20.026298532142356,37.62858318297331,21.333070615416368,37.26360112970526,61.68027816153449,9.736848409510841,8.977684345332651,1.5132851414382458,0.777860052476245,1.362058452830827,1.1568842772924797,0.30247413197220574,0.04868556781857604,0.3100482403023615,0.052649604085261696,0.25480627241228854,0.033856223937545435,19.947322167640877,2.2909180734667935,39.42117869164333,25.46258337407961,51.01734066797682,1.6172968546715047,9.789453861141993,6.984504176902875,0.9339069770841497,0.3957378061622309,0.6352150835883842,0.5499992333557437,0.21871435632897937,0.02281006921594343,0.30669606445080116,0.05226250043154285,0.14581923153796686,0.016207493403741387,18.40306633563081,10.130117941331523,8.457498057568369,23.238069064654997,33.72821776334904,11.65027705952309,9.810352845625443,9.535458906252895,1.1526271702451363,0.539592669222688,1.2804214119418593,0.5278473258120715,0.18603061114664937,0.014248385742774455,1.1703409907246425,0.09572392696940797,0.14371320609126456,0.005277419555438793,26.53283647269257,8.071641030322263,4.761019083586606,11.05596343877148,24.390862929919535,14.877049767589433,1403.0,1230.1666666666667,8.0,0.0,2.0,0.0,3.0,0.0,0
7,9.740357840356747,5.617791573822511E-4,0.1382775043429853,0.004246530330113163,1.2963116907876384,0.0022497745856140863,0.21594949522294288,2.625284999160147E-4,0.03622968597068213,1.6942839101088584E-4,0.025118190098615472,5.838547499968984E-5,59.446946892856566,0.06588647819661418,7.612000394458613,0.09484445786882298,0.6619419872699198,0.10712372537777073,9.637687620052622,9.082302530674636E-4,0.42334824086220796,0.001790912244920302,1.6020692429266685,0.0032977466117879986,0.026221057823435825,1.1750532424542677E-4,0.019774462771794395,6.706986074564394E-5,0.009968925588802734,7.325502038929712E-5,56.6022254376372,0.07029462107971599,15.116723013318275,0.11018197044840901,0.3337919034125391,0.056748790207645707,9.72944241515861,8.863307181599529E-4,0.884887937671882,0.007359296335568742,0.3550748176072255,0.002311731860901831,0.027518504246547896,4.499276219663977E-4,0.038770008293434605,1.1454979200807935E-4,0.03844173545160231,6.080705734089076E-4,41.761029456272595,0.659468989940767,4.614432124066944,1.1898554346867691,45.689822362474175,0.9500753776318135,9.57984700478798,0.0022309851394570744,1.4245729968567524,0.003548327063220061,0.6771980154612833,0.002663691631884192,0.2198605945041357,8.041198655296286E-4,0.1354130830400246,8.617143881279032E-5,0.01974849592055356,3.539257180052258E-4,42.31700250925111,0.9320215533319776,49.17358776754584,1.1379399522060951,27.869462746233978,0.8577715048689653,9.677025440310643,0.0018453027602107306,0.5976547086534422,0.0017536129641946739,0.21396657849146314,0.006039058770589979,0.2033721151923345,1.6210928116881432E-4,0.1419108428738334,1.6715707645089756E-4,0.020604471042983172,2.016126885653196E-4,38.261726820764466,0.3448815836860234,48.84668952374419,1.0505316716812296,59.00966729408454,0.7820163346660789,9.722323661993357,0.0023337333925538876,0.21419269360663476,0.005496640601328882,0.36135895076123153,0.007510650269002394,0.13034176041395212,0.001050518407418762,0.20844493399966846,5.924733144306817E-4,0.029869041313736678,3.8743855242266185E-4,32.80423206928348,7.931867642907645,16.991554486850077,14.369394635175087,42.57676052061979,12.884797991412613,9.690924258271524,0.034701855183593554,0.18781703291845717,0.01685319939474358,1.376337172940743,0.558648753105055,0.13069639681291975,7.599415742292621E-4,0.8971177433147903,0.01645350418844673,0.03271399169357172,4.5344341268145426E-4,35.05482908516876,12.467749240084439,10.138085670707639,14.520822726297242,41.36837710230804,19.33236978855489,73.0,1230.1666666666667,3.0,0.0,6.0,0.0,3.0,0.0,0
8,8.950605539620415,66.97149852891299,3.731945610628271,42.46411437901656,3.0639297781158086,35.012012053178985,0.6246671251950724,0.516314092787139,0.5629828694571879,0.3685358784326951,1.2984402745323302,1.0876555483984314,5.368401093670159,26.685769983302105,12.440782922974302,20.570237143213685,9.197388975580862,10.58235081584362,9.376142291290577,31.33054128085713,2.575190924077241,4.574699272817893,1.7585745797115417,1.7380106669219006,0.5207790632896734,0.17257722276974222,0.402291346860911,0.05565684419390737,1.2495004511339693,1.2950169440119381,14.462225677553286,2.8319394946521625,8.710037211741298,74.90180897868375,19.419431071636104,3.0623522313853444,9.203182939655525,9.483701628024129,3.1872842939000976,15.195336214174553,2.963765885219101,13.91558955134792,0.5230760172563643,0.2783405096873503,0.4762856271675949,0.08162183683412898,1.5963709605011074,0.404284750611431,22.621230133308853,9.738393353652583,23.711992090398613,74.03404141509284,66.35926979632417,41.05022870530747,9.482866287231445,8.383798161094514,3.6285544167126504,7.236690016438943,1.649814937017427,2.077676387151673,0.5296759037300944,0.1614154021936958,0.2857600885562691,0.06188408483330306,1.525097256788045,0.3295791864128346,15.22829356863479,26.541550011038705,32.10602517561479,51.100526976474086,20.631494364462608,4.988688848495675,8.94034883010486,4.781234966374326,1.4442533306962202,1.0110612087401598,0.6785672656221946,0.398207404041813,0.14669300914450534,0.013553889214355875,0.4363078525874856,0.09661646314435071,0.8892864317841027,0.16398376641032983,20.500949654697386,9.952535917349856,55.81679497080401,23.731979962276462,53.37769803133878,5.518568897264538,8.63487214884482,5.936769892044766,1.5266113950801659,0.9311122574822149,2.407108340627891,2.3335093323829392,0.5222479256412614,0.09755228129643542,0.21303344567013857,0.025916473735630916,0.36964693525421227,0.04728535794188966,17.246740368772144,12.220612669392699,26.57251422661395,24.314902116942385,46.164911285904815,11.200781848743649,8.800260863028281,5.381551640434444,2.7659126735361648,8.005789440791512,1.7267358323235895,1.4745984338018139,0.3683525872521905,0.03430645381803869,0.6889003704894673,0.06708174859558799,0.48023534022764236,0.10646172128595678,31.734466111364444,13.589752869918671,44.25498194733927,21.15519239619034,26.1332324871347,28.354857194979378,1663.0,1230.1666666666667,5.0,0.0,1.0,0.0,1.0,0.0,0
9,9.34403971995204,0.056063239293476105,0.8430440836597604,0.36622597413714836,2.909866971417892,0.1977427053944661,0.26929722307634746,0.001883443464747701,0.12697869373393084,0.002221195694004227,0.21074525620942272,0.0030258547297651876,54.68606788067778,2.3747763697581417,7.18905866638688,13.53572981405148,10.260323146158013,4.998668616922975,9.486689851303732,0.020054226402341717,0.27229786727554356,0.05699674894035386,2.097600384192033,0.06122850171797086,0.06910702470335955,0.001858327079910383,0.05091069435747918,0.0013481169404222372,0.09570110736372457,0.0034605939598219672,54.09945284630641,0.19045470475295329,19.388850125399504,1.3156243162330328,4.731690398917711,0.9520220997671083,8.703562634050353,0.09404039128710694,4.1075025599850115,0.8488092973350899,1.3557969676561592,0.09291273867278926,0.17881503342342955,0.006918433542209622,0.07408549581762126,0.00263273551115268,0.36723465247710874,0.008553560496756167,44.44484335528917,0.9544091889792362,44.16189253625791,43.996516409497,44.261086519099464,2.6171994785375157,7.921105802551774,0.206225291396313,5.5304848418748085,0.6405276661448275,0.8074321668010113,0.07920429463630957,0.17327444649432316,0.00979726078684365,0.2800036533312364,0.004983028890450371,0.29062793441001356,0.009713959825546955,41.74332714868971,1.934344427582811,18.26650374388892,33.0326228062976,35.89310483696047,1.030705979499218,7.190056100857159,5.169128491872786,0.7351400504304357,0.42836095973237875,6.47262695012999,3.454173295136118,0.22488232976699263,0.03323200186141309,1.0425362161914857,0.8353799443981414,0.33629041340602334,0.011644585788618942,53.77331943354331,45.77189019677351,46.844790119770146,35.251352612117635,63.256441195149065,171.49929187778693,3.33824048388734,5.883638594097175,3.7642697145131008,1.8801427513271938,8.41125244739627,1.7125375670126857,0.36169613369794423,0.016701745283735532,0.8455902183974885,0.2760951102570405,0.1614609085608366,0.007863826795322578,12.515296556240271,38.39752980111425,33.66012404575821,34.069058092727246,71.30752216685902,23.906852076732275,9.817427993805941,0.8464328684149317,1.4189155999848173,0.8291706797473264,3.293298764362131,3.328781731131534,0.45115592570836877,0.025911827934202387,0.41851392507068197,0.16792393323605556,0.40696146230652064,0.03291421997516381,31.029402669796273,87.39016921189415,26.998650018833885,102.80652939301402,44.85545238778611,98.74451009727393,1187.0,1230.1666666666667,9.0,0.0,6.0,0.0,2.0,0.0,0
10,0.6374489826738088,0.887384797070934,9.787960848532432,7.640344587574096,2.1869654364475966,2.6146324095407207,0.7283911357069973,0.3212657627052354,0.10791228929186271,0.02280490290689263,0.1453203470984951,0.026966486024573067,27.85398029295866,2.1453123706998323,53.20139773029926,2.023789022494732,8.687538905577226,28.205831524476576,1.0582967627147013,0.5945754460790208,9.70417400628082,22.584914060629835,3.28952938909373,1.3981151715658793,0.7404891974792993,0.5469119808510476,0.21719483514354865,0.04797267571912651,0.2318989335836396,0.12424569925035961,28.059733524795405,1.925805067468425,39.3404253494641,1.3853646921144458,11.479951153855678,17.855172222567184,0.9814341222743618,0.653091428636996,9.68431226084055,1.5570882134832749,1.6441346851893324,1.2268589114000579,0.6378000648345891,0.2502762792212744,0.14642696779352143,0.0410390651350077,0.3021055188266834,0.11419341392914943,8.930623676658662,13.615969047115035,115.76829352260621,4.062723056539129,38.531710758682124,23.878174742572988,1.0854062270373106,1.2896372880574238,9.987514034775662,7.853346713270191,1.5169668681149886,2.3795963935555586,0.7896744869303051,0.425120825654596,0.31436019030607437,0.0657389768073635,0.32647004835730925,0.10824106306340249,11.681827960920728,15.561463980074901,28.669043217808746,4.058376677792398,44.968301205595665,90.37237840670237,0.731707247528286,0.1482038104406476,1.4532827433460385,1.3898882861029516,9.642180813245536,0.42961293840590414,0.5758510843325361,0.1738522667718989,0.2065021659840237,0.026636529092350536,0.08870048703883644,0.0076663875960461215,18.065937184105234,0.8016886409256545,42.65184938415023,49.31957776125086,7.44510333006047,1.3340972388586823,1.7813772572712465,0.9938323638504885,1.4409460819765063,2.730686355177168,9.620603494407717,0.6560912864337192,0.5779335046858596,0.34422346018687106,0.5112810101040662,0.15940487492044308,0.13048635580344126,0.017132027748267664,9.417206956951086,47.76727063261995,13.540884482959084,53.05485581264812,9.82160143911346,17.098850836269737,5.057877639231603,16.51906688134324,2.156413580583455,3.565609719756821,9.157333878446217,7.3943751499485115,0.5137071221574279,0.11958971574044244,0.8862407270449498,0.23369583032677585,0.28767490081396724,0.05661815870089519,15.393352859768985,48.574376724710206,28.276184610098845,55.90030176499493,22.904577389236323,20.514504370662085,806.0,1230.1666666666667,6.0,0.0,3.0,0.0,1.0,0.0,0
11,11.720480432195112,20.149898208497486,4.843476809984581,18.507461243976156,2.3685822821229943,1.5700580767245793,0.6111823393624615,0.20882090594551608,0.40902151364432876,0.06248209973549876,2.523536502441376,3.025703551445046,15.76052801274071,52.301018863632514,6.2058091508455515,34.065643372609074,20.312335658171946,96.60190941936979,10.548446798127545,18.097368390597783,3.7431016524653296,27.622155271182166,2.6350397254717497,6.683586490471385,0.6276201335617057,0.38708250171213215,0.4430277203007655,0.1921258208644318,2.119211791660483,3.179651037684414,15.534291287099034,11.945593341905257,13.088523427316964,28.129700011315744,10.298363341280252,19.363669278363734,9.280059995730062,10.624650537429021,3.7594339315556295,11.774387122930868,2.12055339251668,1.4194845341414188,0.6045641459606772,0.20203692792103287,0.2891725129871206,0.03909193818794356,0.553910287835997,0.14991496941048135,16.25598444032275,2.1625602755921824,48.22446643419502,22.42908168169335,43.32933701759528,88.76885973555132,9.131311193970609,12.362343159202938,4.91952168181046,31.629754189792795,2.1246194575166655,2.168086388717363,0.7611539134109193,0.8099263180517045,0.4611744787544012,0.09466641673644367,0.819632209372963,0.2597924068402554,10.972240369181987,4.02166118294701,25.182781101258332,109.88588815996634,46.517592658681316,30.73040341221146,9.766709540501115,9.27214323001021,0.8100607836126419,0.6186451687965592,1.3343571055996086,1.553327177053854,0.2231606774547807,0.03623846085852874,0.28860645398764206,0.06777805967345771,0.3755530818622999,0.11044973622805816,18.385487390943794,0.6823901923359171,33.59245722747046,47.737727418937965,40.032609844995925,27.047302588426348,9.754948647554256,12.23709302183236,0.9797982436581707,0.508056054583312,1.5994608381624558,0.7917958370644838,0.20706718080111372,0.02923656390268005,0.2422194532907668,0.029028791661850573,0.12153159537831752,0.009975507742936863,18.355148575522684,11.579053641553422,6.1315318927292,13.138932385523882,22.591166204657437,19.631041989496886,8.621544455693773,4.3224206038976245,0.9884696650926855,0.9748552018434238,4.915131870380118,2.5881982480135397,0.25313377701331025,0.0400316876554306,1.251671304880095,0.1564633865090808,0.23983717294917864,0.026772231975238817,21.05097669412282,26.723432193535125,8.675838148790943,24.404482864154314,3.80349190037482,8.736543904868398,1194.0,1230.1666666666667,6.0,0.0,2.0,0.0,2.0,0.0,0
12,6.185853641079969,14.800936503116242,3.970219817874599,4.096266564761245,6.855713613269743,28.234625599291864,0.529939991067941,0.17269395842421748,1.8182852362775175,3.1146586150689757,1.311320716851922,0.7806080967012962,31.581047345784086,137.403713957388,8.101449304575885,48.95271523902252,30.53590657888365,105.86884070207182,8.693558557467027,10.989325454187995,4.444956602143847,5.17780174794816,2.8605709438604756,9.040760785712544,1.0053423847849212,0.9542432272835689,0.5685951827355653,0.3313384561736642,2.465585192372976,3.3202787067758632,30.654179612713413,135.28396058638648,20.27410618332792,111.02307477439912,18.547155181238473,25.13488070495249,7.44328880851919,32.84348889719595,6.96392673106233,15.341370540987162,3.725035267674233,13.408880870921344,1.4063645459654186,3.0799666779889012,0.6877394641041448,0.30851010779394883,1.3292365281944634,1.6844405505960085,42.9019755371346,52.82032976274637,31.013559743392566,915.2436206582915,72.93387124558126,40.43061177018319,8.989558285179218,12.946810945838346,3.876506421083877,4.50888756519584,1.9118007123624243,1.9100048356172605,1.0701056623923755,0.8486386995970229,0.48674269405786286,0.1682744150459526,0.9381277940182153,0.4827129218862011,53.846412280374324,22.799497343997075,23.39650182536811,136.62758474226612,19.90450504397558,27.06024891023616,5.847054546529597,4.419778579080542,2.4773226388199023,3.2788816713213107,7.787587731768769,10.606576424537407,0.4481002454557418,0.14307602549121173,1.2155873735843241,0.4625763461498849,0.6675512882561446,0.5413431646762674,16.894845646274977,51.33512647837338,79.91136951288901,14.355639186559323,3.7662643072280018,2.275727523234262,1.8623425024311435,5.620629325600676,2.8210272720653164,5.039488298138434,10.26848735494062,8.175759542458266,0.552479379864271,0.26591922623489883,0.9253187579649292,0.42159407102898183,0.47365622363865767,0.29362023337688853,21.25523173390341,76.7194159822126,33.21812472067589,21.266279134699403,6.669388898517474,19.70074838980314,8.093780676934344,74.23336052987095,3.649672240187214,10.287943863749938,8.128502752231665,19.33065883271655,0.7105783181311178,0.39834424729818163,2.023338193406759,1.7343651584452,0.9611699995988873,1.1889334106760971,21.89152676261161,120.97844535184848,26.572324153805567,55.67716552664032,17.63993123592424,65.6572250593875,1146.0,1230.1666666666667,3.0,0.0,5.0,0.0,1.0,0.0,1
13,11.401269434712642,136.03375160479797,11.013951660434076,109.34129054098962,9.806563040318569,69.78710240944177,2.2700565072923347,9.53638605555854,1.7948054078011966,1.4280046243016884,2.4514599373171584,2.709430470081835,35.58080048600504,207.4379453506829,15.179745249573356,69.80486177319203,32.114011346801256,114.01421080618762,9.233983724508896,25.794704246396527,9.314043731852012,73.84507141080037,5.750366218326506,11.695076198598478,1.2207046692790695,1.0430864413282983,0.773937721927227,0.2230620860445711,2.7120988970268365,3.153010652275177,37.05127610450934,25.320605861795027,24.521301665089346,186.08027790295517,10.750279103675165,45.40185181289777,7.129831169570281,21.51982921239148,9.74935450472615,70.92627071453168,5.261361943475117,62.07122406786413,1.8519360765291393,1.6117790564993368,1.4820914565381587,1.278655690482205,2.344063513481235,1.9101725374144798,19.289814747069492,165.7205284316646,89.12883367617268,64.86206445894602,50.509058172052555,65.78262114050384,8.090543857844901,33.34930984799685,8.045426022600044,48.924600375798654,3.38585205092903,7.670688524009979,1.4657172531847773,0.82875661585692,1.0360493488871485,0.5011385012111321,2.361998865423216,3.199999296649752,33.52738026671173,184.31246928398903,11.721570430215726,36.554754244765924,49.48059967923756,24.50996490863794,9.798239109262223,86.70015053462627,3.323656569766112,14.242812120597126,5.4377182065393805,14.700808707935737,0.8231472760469707,0.23461090780670055,1.7842711021831212,1.2157991971307873,0.6232769523924293,0.32699699873390803,37.938942554568456,15.839782328792305,57.423994395358505,36.89895214306152,33.292758386612924,410.0415456524176,9.675519560425242,64.94008865101618,4.894727332225023,29.2261927698501,8.828727128461372,88.41627663078798,1.0404494787972374,0.868941769219313,2.10806922144295,1.4298675944490304,0.7290763699041665,0.32437750221997486,30.534760238710515,40.5282493026228,28.462225874593436,14.295513980384875,40.436389789108404,263.2982315109906,11.72351040272427,117.69522459671619,4.537580162348333,12.306889417178407,6.940538364962852,41.011334305920364,0.6231458839529371,0.34754121966544177,1.9868426026453163,3.0601675810600355,0.8743696025335076,0.6546429615826308,39.49850271556003,18.633745797127517,23.315290261891263,32.7531092025551,25.161890002321606,108.98976993232463,1322.0,1230.1666666666667,3.0,0.0,1.0,0.0,1.0,0.0,1
14,4.957724668485813,10.501746272279199,6.246434514433885,15.939932438382906,5.4881631312045185,11.093421622042184,0.662316167624167,0.45867506945658026,1.6911784950797715,1.5891898649348848,2.4646440577223774,2.637726025650155,25.974295164927963,156.04892423411277,31.062690340782986,101.69616217367091,23.91448657768817,56.37141924682172,7.01619608385473,25.342852668258747,5.461471216799307,19.989180562741463,3.8379358238009504,17.04743731993552,1.0493031456500814,1.351485843109015,0.4838113890429728,0.21553520873225213,3.159704766921268,7.0971527809998385,25.066597201607443,116.91500269226715,29.291457310195796,26.886224325104752,6.312754991933827,71.4472173032279,7.979610548039113,20.938765684081368,5.071455369187781,5.554476095059392,2.048817271913194,3.8851353998631732,1.2561778191146094,1.5731490513329651,0.5481888597074911,0.12746854352813425,1.7787237206747186,1.1255371391537348,57.11972585000282,42.987387457171415,44.89081918700668,721.3653513319692,56.35337517478249,55.412300859432285,9.066391097612618,12.337839635415243,4.329923571018148,3.6765829010456943,1.0199950655584593,1.5451611349152603,0.6981396031612146,0.23167238678872384,0.5644244209609248,0.13500586842805776,1.051527821824478,0.761575668361099,60.601403764456755,18.82321275584116,25.873432751529474,115.69632070975793,39.18608205180523,66.24067084040833,3.480747430883579,5.995696608759842,1.3883979184753146,1.2007267309645853,9.530100684520626,10.788481161531033,0.46801662793640847,0.10613136500445818,1.594989433607533,1.6463946273195826,0.3303054544212651,0.04458260306853443,11.93403982555817,154.7203135823319,48.32575465430898,6.9772572758071725,13.93004497587065,16.309135602029734,1.97716782648455,1.1823077029223477,1.1378323659223835,1.1711869359424796,10.756739750381344,9.834279766482162,0.33727262786316325,0.05467172741863034,1.1956445034872356,1.2962220663551953,0.1756568349491851,0.029198034836368816,20.621491065695267,62.32845190787067,12.996575538777122,15.981543975537468,10.74012618813633,15.916455357375149,7.663115325668627,65.26003258764801,3.149351917722932,14.019962642460108,7.862685252812283,52.14396883640116,0.5498270117215935,0.09640794443588527,2.2024759339892173,1.2392393022770052,0.689562733939364,0.25968588986371627,24.267677157870995,137.3438781248648,25.78576909214997,32.51395421971466,16.092056088211123,30.13948470094211,1226.0,1230.1666666666667,3.0,0.0,6.0,0.0,3.0,0.0,1
15,7.049436267742441,40.49791629528161,6.378686181946912,71.38999133308816,10.171074418489598,117.40549685693978,2.922809448293295,4.795809911826307,1.1282501517802723,0.622503018710304,1.7064494110686197,2.894305970362912,41.12322531455804,24.075253533217296,22.674666303617894,217.1805706138972,36.06731322875693,386.4052325029108,8.671525975027361,65.11956026579308,8.908162844969606,125.91669337282087,13.415791385368374,195.09626643832954,2.4276095489809704,6.189814113479158,1.7574507650757625,2.1666317043380565,1.9654943985664401,3.500454852933212,29.15159737768252,214.28713291779664,18.27459087105822,156.21298762346925,55.24202231730311,197.94230273205736,8.083143183037885,42.24599193170669,5.707007933469597,44.65507432435891,6.923655140744753,30.357965474313325,2.1397047170460963,3.0934364438075495,1.7199468838805256,2.3759878683233397,1.2344509012658487,1.0049446259934056,30.47497311111324,267.8381535540977,70.12629365526941,207.2359622018056,16.52959929911558,225.82496113310896,8.257885797010843,116.03107501710608,7.199415353596334,75.23236455558646,11.447895098015788,148.1844411456166,1.6308927320690503,3.3274268836575787,1.665453007783402,3.894485862580719,1.8503707800337599,3.3778156825200036,9.639226776509245,46.97011983957885,17.333656897968496,113.26199794863469,87.6336448921645,262.4759099424083,5.008604368410451,19.71871275163547,8.90293477241658,46.780251697295235,5.277469186866579,44.664935535811786,2.329870373139558,5.569104675200176,1.6096748405459438,2.460091890556983,0.9721966955564485,1.3664151733650498,28.965981980000645,130.1692308770046,30.27996777872409,192.49910676163333,68.25367897601167,122.05116150901739,7.464759372236315,112.04401167099904,7.712483657908834,35.79150399935888,7.478455101039784,79.23386364031714,2.0734795351081705,1.9622157003707348,1.9053308250428724,2.392029181070488,1.2643896572769058,1.860252537250875,23.409274038204476,91.68120219914725,20.769863146888323,127.54576430817707,54.14720714978935,139.20645223664488,9.689299611113041,94.75162883733078,5.636248629201543,17.430096453648186,5.120508853561622,34.978393407294085,1.7689028643379527,0.909550324709773,2.4620646129954946,2.279080086424623,1.0714604769927674,1.7375387250825574,37.68740378135492,23.779688937009343,16.650453102490133,60.29320779169204,18.010301232830553,68.4015280008134,1293.0,1230.1666666666667,8.0,0.0,2.0,0.0,3.0,0.0,1
16,5.2565360420252665,9.799900354275678,7.692339442978221,73.38082005270135,3.2387214573485053,7.614434866878349,1.8465587489214563,2.5772906981321713,0.6954139710850398,0.1220889141302514,1.6362530612810091,1.927113850373573,11.531189402765479,38.62042733154725,52.14212985078165,26.397376290231758,20.531715739857066,35.05144857009816,4.649180246409306,8.89467627320804,5.265220907847743,10.333108781419446,8.347939256547896,39.437213276254525,1.9093732044008398,5.0805577761529515,1.2601516092723344,1.5110823622986802,0.9722561187010782,0.5260588081442757,23.500520658887122,88.46605226942023,29.36823132609533,101.4721126520156,29.29344632753656,881.024401935116,6.371342561831159,16.60799931841796,7.757717913832546,83.97537278874582,3.312115693942082,10.999283429064556,1.0706573022329364,0.44864581734855374,0.9504571722989733,0.8433633162547057,1.649736145095638,1.0335751583869124,28.54625937810614,312.5032617744493,100.15086213419261,205.92456757105674,25.125316099687055,16.821375174635904,7.966071220407309,26.614515055920812,6.42148863481096,61.295429637445544,7.741070770774006,166.50944226151574,1.4237123116319768,2.0382672823609838,1.8229515765801318,3.4047904891589154,1.5605217173367485,0.9660195823349493,41.73569439610174,365.21587139501827,22.770038247754997,294.2428647108424,69.32279476449509,362.47969543394953,7.639359397336471,24.401484262309967,3.203228674013137,24.781222182892908,8.194090288040066,21.52957753612034,1.002552810990952,1.558161120301435,1.9490303624544507,1.9025187229660934,1.0300323733384529,0.8912223522171048,18.504034334716717,311.9691526739874,25.484739153838355,30.24738947663405,15.434335758617102,45.373342935168544,6.8141516614551385,40.752740412844865,4.028689416756561,19.014142769823334,8.911538928500876,16.351588580065464,1.1478260058836534,1.646267968089203,1.8978744935252019,2.7148310983152593,0.44733763621515815,0.40208529204155746,18.674517728573036,228.88753936189914,7.578527341789204,16.762849194333672,16.780187272559083,122.24167660177336,13.569623496414216,140.44313375431065,6.826628144984403,64.92411836725105,10.868459450127173,116.26072776464162,1.7492787010105681,4.246442537665412,3.0383140217851508,8.453160160406888,1.1961912172129123,1.505493774344796,24.01698670209932,136.85650244223214,22.469458029536177,484.0177806763068,27.01010529142766,87.76423789520116,1374.0,1230.1666666666667,2.0,0.0,7.0,0.0,1.0,0.0,1
17,5.717530726278124,28.727464863515397,8.610081430586163,123.81915480896377,7.19961226306671,139.60748783858196,2.9210729068068186,6.114813409762395,0.9834383059416182,0.3635701640001112,0.9760249339598269,0.6492283065580969,26.739626293340006,67.41265582982831,54.405288570183366,74.9082240359579,19.332390651845735,269.09867032446886,8.938284201959286,86.28089705076057,7.673000024000475,35.3211578104036,6.86944149776308,48.131275282926296,2.131989417997889,3.8430804198973862,1.393807795760799,0.7874263568344466,1.6984466771433546,1.1608905912004068,34.51299827354999,432.99153319593063,45.93790941790116,449.8057094995223,26.532272956803563,66.65847707547397,6.390746261585843,20.867195760726055,6.540368598770381,21.23986614473474,6.34212300341484,81.90133774727511,3.0684580670300226,18.32854891994653,0.7535857164170131,0.3574715798159459,1.5406453563593143,2.003847226511197,32.599424764144516,139.4681487185594,15.724812749496175,71.97690137426709,74.08017541554348,239.5125016832927,9.36249982670319,99.94134055725344,6.92379785359891,56.7006609462962,5.951095907648733,19.090257357040734,1.168730523628962,1.0586364928907377,1.9311186748148859,2.827457801715927,1.5451056222962447,1.303220383288397,30.64469811936055,49.030504038111104,19.60558944792787,81.26576576072475,30.93204256621274,460.68895479134846,5.591560059342503,20.446233940096995,5.3828253764813105,31.521514737618197,9.360817885103305,38.010070497805486,1.8835300394326202,1.9675014199004675,2.3899142440862584,3.2196022405733657,1.1012664263402228,1.1901609053071935,15.47853242562822,123.26637381805914,68.24170583929897,210.8075142883185,89.46653659284607,82.99350930086533,4.240066867598817,10.977867483689513,3.134328442048435,8.23431118309823,10.807222261285979,38.45928283524761,1.1704052075924551,0.648315957074191,1.9779343888902468,1.4889721141696353,0.4940203711045819,0.09490247489190519,22.205020029682757,70.86482968037515,21.351708018090115,20.1540588754403,60.87431212496166,93.41251854491937,7.447199073851047,34.66473711184797,8.538660033428965,34.60114154753439,8.621647936284296,33.29290039893139,1.4476177772076047,1.604852689085475,2.2966947204872104,5.8124282561646226,0.8879430569691029,0.5157644627883632,33.62243947115812,47.198925351766725,54.45344154105699,284.45846398995985,24.272172432300472,130.54041217600988,1077.0,1230.1666666666667,2.0,0.0,2.0,0.0,3.0,0.0,1
18,8.929828711223504,63.98134022736348,11.002785630216284,119.00090904106216,5.733009417010241,37.89406262872756,1.6763488068283836,3.268307377140555,1.0850692711162482,0.5889124816950351,2.1364358716205625,3.949834586351042,23.13910538992606,390.7852948508284,35.0725361197448,190.45012679046548,7.3599904683333905,48.98387539705655,12.302674562231568,172.5417628489458,8.61297459555559,56.364916617105834,5.587023312025819,19.4909817110959,1.6891571077525862,1.258954517523886,1.4945785973436576,0.8064153415373663,2.316382567713822,2.356953825808409,18.53317306283092,163.3072962738549,60.887621635247854,56.169611236468164,8.066815214647242,51.02377140264766,11.485456243403688,177.21107614884392,8.338427289212046,77.84127829169665,5.970528811068189,54.78062834989965,1.4717613405678882,0.9617093899162225,1.111752191512299,0.5920428075132949,2.002676470189794,2.3268824059833877,33.01627841665725,195.93021553560092,64.66775944188606,929.2285627904555,43.70742922380936,84.95626659149887,9.75995097988216,126.43972467155592,7.381763388333488,155.738435007884,7.693370627223953,90.23688292701134,1.7088937728227047,3.0047789151963156,1.2504061796386872,1.0605074091789497,1.9050817705752436,1.5026217999996894,41.83840515199772,43.65959401412515,47.24355606205207,565.0253712876583,36.65587231344428,114.96656602507596,3.9875968820299983,10.437735934979608,3.3137196808955287,11.802417187497145,8.959142432755922,84.23256972090446,1.4851102256023687,1.7217196760782978,1.550522428698653,2.5386470198002664,0.6522173606304736,0.4808153981653926,14.837370199605454,102.76088034600714,23.152302509004418,84.04828016399276,88.62943242601126,53.14921877666767,4.071480259083765,10.248279947589209,3.4284143632601114,14.169237426491467,9.226034312393548,156.36039888754118,1.441543731114958,1.2353208456512503,1.4304677902389902,0.6619793079489612,0.5502935470147289,0.291721408771132,21.38518690668847,103.0807034311123,8.164998017259189,21.43334365413839,53.51728675779232,90.30187594787873,9.249975056441363,141.08802084235384,3.0522052409081173,11.0532081865262,11.11991422087693,248.1397929437738,0.9710762531627432,0.9603231807328637,2.725482941843754,11.48842337941588,0.88540741421036,0.6006381688779405,34.53724044610646,24.300164765177197,15.765929431277366,43.854278692034235,15.92587031978221,155.12600597163976,1442.0,1230.1666666666667,10.0,0.0,2.0,0.0,1.0,0.0,1
19,5.910438342281609,12.163857967068118,4.533346576323686,14.040910989775815,4.192997270502334,16.418541230429454,0.4721261656531402,0.14256507729505416,1.7062768483426698,1.9750250659879827,1.8639070648307459,1.250392610775022,25.074432868602848,102.29940870034562,30.959234899725796,62.17109350352064,27.576130055198984,53.83920895285852,6.893299600063276,11.515741433413234,4.3777484687551285,18.377583921986286,2.280546350385378,8.455225679862217,0.555065196814941,0.28026157447493405,0.4046343899378168,0.14167199851306955,1.920274043534613,2.0490661322508883,26.13970546436704,109.17556344629345,29.499406987970527,49.430318755570376,3.2205471166078588,11.579027334633587,8.065822100836384,10.609765544451452,4.650208632007611,6.391087333192478,2.777261208034744,4.674177810087873,1.164516089137736,1.4136126382185346,0.6201706515040156,0.05351143214422868,1.6638239614419208,1.123485554562508,54.79842200161012,44.07123497325309,44.39233573409152,522.318795268585,59.89388007171883,34.979260017240186,9.066901939959566,15.835825831111455,4.481500710091315,3.925976298458197,0.8673651510890966,0.766288470212128,0.8643314931156837,0.6371537218799423,0.30058373518534437,0.10413178312736272,1.5321969896216283,1.093594613961719,59.19415812847043,26.51370741454046,24.90296850618252,140.49395107178236,38.729204508883896,13.877594516090324,2.4721159894358027,2.199594245947886,1.10446209583647,1.3121732579765524,10.136668059451521,8.587977573180641,0.5023666132195306,0.18356732096968084,1.4931224415863842,1.3184052446661911,0.23349433045156978,0.021908732065793475,16.23786839571866,115.81257184635015,51.03330690998676,18.34962072952404,10.702971224203583,9.81293550115676,1.8578466663583497,2.45618234761728,1.3004478758589695,2.830346265528902,10.857735401342723,11.984902411863342,0.2480011320757595,0.06361676677318338,1.007567252594331,1.5673283133884641,0.18886463648797405,0.023421772228374004,24.144426400996437,37.52644194088133,15.1724797595631,15.774202455545518,8.512410298420871,14.76605308934854,7.872858874684523,72.44347774855778,3.7396314101185926,12.706981067692722,8.411387515462135,67.74304283709743,0.455348669351194,0.12052288377505241,2.3885048790411516,0.7908896099147108,0.6469061567509654,0.3033807640603711,22.719731908199215,105.15894219451519,27.73571752122611,24.650339094538012,15.361816346645355,38.90450241643094,1309.0,1230.1666666666667,3.0,0.0,4.0,0.0,3.0,0.0,1
20,4.814231878870036,87.38723583808313,7.104454287504854,68.0878395928887,10.270023908989488,66.65957101219765,2.150717983653476,9.777249449313189,1.1354831601108217,1.9898437286330297,0.959661973878926,0.74982885769079,12.138071631966543,98.06817529092785,44.21693581194917,30.100137695617516,29.224184837223085,52.05371872799853,4.796737700315916,17.407808071316445,7.717028468600975,11.186314304876358,3.343498486132661,19.419484268764766,1.1490687892641411,1.653376292535552,0.5930291330557286,0.25377658786859897,1.2677806863976904,2.5114233795581558,6.2868562550091545,90.32834458018212,31.023882513696496,101.3945567302591,27.013629858158836,209.74987229762868,7.281737770669716,43.46305396471272,5.681463873683483,18.638576126921514,7.85843982381269,76.58117349693559,1.4815040360789837,5.174057804426282,1.4313985902107944,10.415707221859579,0.4728995083921689,0.5806873428161302,23.94183463769511,54.14570780094573,54.86041427249751,584.1319502099363,93.41132575421294,121.9708120794904,10.59568886361893,23.241232797121874,3.6389285870327437,9.691723894799114,4.994551831440738,30.41845841548888,1.1847066884698763,1.1930350126344436,1.0759660395185564,0.8859303960830996,1.0822034446784288,0.6297047002972024,34.05094870259939,254.968703343156,19.166528339720955,66.01376728460237,8.115671504381275,11.72838924479289,5.6545704957867455,9.886367999910163,5.877082228462389,57.25683073022436,8.963804763087557,19.79282183368326,1.248200261642125,1.482829641931154,1.4829304241075003,4.363350021944707,1.1835580617420314,4.508509364984673,19.808053981174123,19.909153405187894,84.27115801346204,196.04491084518878,11.757498183772583,220.00654332266365,7.343060947646779,77.29464346355968,6.279658698715454,116.68368028683591,8.506952728860634,15.822379582043911,1.5190425025246757,2.552378262278643,1.5820806189449812,3.910350343877042,1.2593647515822648,2.168707246504963,15.867043209793277,80.18720384182033,37.9919051493495,90.68079420030669,15.911508427640378,267.25715759426896,11.560622914024622,113.87830669647782,9.69346677591978,116.18497962506758,7.920342833665777,29.841272743859484,1.7719333443659828,4.493896978530701,2.728768346353996,4.879252913460482,2.2254178228995896,5.93929117784424,21.50013988101778,146.22028822485444,64.22897064587302,259.2256520316268,15.698303194085428,118.16718935250948,1650.0,1230.1666666666667,5.0,0.0,3.0,0.0,1.0,0.0,1
21,8.362564779756482,37.81395253547886,5.842592444805782,58.550208716619444,7.287398302896825,61.650814166756206,2.3214662602432994,3.743691148965383,1.4186084887382289,1.5507786469610176,1.0280553117579172,0.9108425148360965,26.15689381686124,70.59567809303209,8.994517228081207,50.609787946241276,30.15079603904535,34.412309161918266,7.1728087082382075,16.718611256586165,6.265792258237758,27.388342529927964,7.6665768950931295,26.975649549477456,1.427874867396414,0.7561868273751668,1.2305691266540162,1.6153400570638647,1.2575420726644846,1.1595924016622456,18.488530278944772,39.480508145040496,25.531948217552557,82.017610830545,41.56935081797198,7.1038027461369175,6.297491537176134,70.92473764636186,4.293109961038779,12.628497710942295,9.574092848241822,30.48802279436833,1.637006965616895,2.6268008872078155,1.096660722470419,2.90446293918188,1.0253487157304424,1.503072914221933,24.800438424279868,84.08533708512546,8.01624923661228,45.82292905011555,74.67383083627243,60.9733197830298,5.986526349597911,28.659883676430425,5.802819025633503,35.26921267857145,8.424772124521988,14.873535474721688,2.123669265638575,1.661121412926558,1.1830942555867552,0.9525130018713722,1.2815589649729768,1.8892171415869656,22.75612438174565,115.28410671568291,42.818148345001475,348.88618702870554,9.759109881544902,18.161831527238164,5.429024016869462,24.998189051695498,9.161687112051593,36.11086452584098,4.821333690985175,10.488519622699478,1.044496571044784,0.7555631734710643,1.151868972088372,1.0153194739389908,2.0102694928184275,3.2471768216301844,28.95844202199258,105.33074646393162,88.63890491832386,76.25561170741948,21.40321246848619,203.51910495658564,4.9395836095233285,33.52387753182944,10.494031510569833,38.91548474614147,3.9850102023891183,10.06340950075978,1.3364498310468413,0.5823980492253399,1.3586451765303769,0.6191641919998508,1.7747296997122775,3.0317238097030166,21.452936718040263,85.89232593577148,55.61945106569401,82.54861906190389,35.903253523771426,111.13103412770224,3.6716696398933073,13.54659757217193,15.229010866693228,91.63107340446314,4.95148050868191,9.379215289745064,1.9204164854720358,2.307731501918032,1.9577021619751434,0.7522135129463928,2.1548251259056004,4.712596097649859,26.715799482154452,158.69787910657428,72.54330524728317,550.2651136565065,21.935292399372937,154.53869146907743,1308.0,1230.1666666666667,7.0,0.0,3.0,0.0,1.0,0.0,1
22,5.22334290121505,47.863804757967614,6.062534547664902,42.53840749851342,9.378239609012457,107.78815806232281,2.479205147255489,11.631865609007269,1.2100819109685041,0.989004885040599,1.8168423294343732,3.507613666620843,19.174603776498273,154.45052175008314,18.581370900977742,131.94202205195322,36.714457913863754,54.13421237108353,7.17006148976728,27.23968989987246,5.30103188990192,22.832619775875756,7.47137399935279,60.97209147851127,2.1176244676852027,4.304063027603866,1.5263947235297197,1.3956155645967712,2.220356289643702,2.336906266615448,28.343449796526887,138.13501516324098,13.782357022843577,212.38552349234405,41.7561020496463,162.85991715834862,8.678298112897833,41.09223280428271,5.611664739968486,51.2145017414256,8.916000105379041,105.32942775571001,1.6389451728256281,3.500597019240712,2.2101730020478185,5.598682193555463,0.8571010885052075,0.7029974139639267,25.078940653603926,133.10519635377736,30.546962572523384,93.67897849056857,72.59033742226845,38.159198128413344,8.941396180016936,12.193621194435751,4.891097409912377,46.540785757341176,4.841116120746313,35.55944469356828,1.4973169515325018,1.7620674209796938,1.2187140974493251,1.2970379672617989,1.752298887480389,0.660602770240907,30.298997602679513,174.33988553429353,14.405408044984519,34.951544320750806,10.263646392598133,48.55810815682724,4.638868589446811,19.238822970787243,6.135242620498435,35.44162959896615,7.278520655040898,16.590831268092202,1.4419644041802764,1.0173259599264053,0.7460325644466995,0.3656030252832142,1.6798014766113325,1.8330139713815563,18.622887108444182,89.20784069343773,78.07901533773122,55.376116829686566,27.33820471881835,360.9499238412709,4.949420880249217,27.27787099338706,8.147710437247575,63.53603830644133,6.9641007436516364,30.575060070244465,1.5219049547021546,0.6320562553383021,1.1271072150562111,2.277078688371303,2.026244299203419,5.01702452075016,17.10925547101281,176.11049912800158,35.27267784846962,360.1339584749313,23.39412727385513,205.37558335228042,7.580986106260256,122.26687341779001,9.547677508532262,162.05785998550652,6.220381556463636,62.794707205822775,1.4666166035843289,0.8032577827665107,1.5833934539359462,1.04514736062959,2.376527573871003,8.873880612690858,22.12478522623866,155.4447427558524,46.99627290062668,736.1974276148571,7.7749994810947705,18.36198312688815,1141.0,1230.1666666666667,7.0,0.0,6.0,0.0,3.0,0.0,1
23,7.6566471326942285,83.0831154486884,5.722374069050324,66.37676844822445,7.382994262794079,135.7450682475961,2.841124498308444,13.619819866876908,2.6929705562358643,3.6952070201170475,1.2885115695270626,1.3545495028512018,22.86735395212804,440.4433139021971,9.40810492314583,19.796704828040323,35.030946224850936,338.22984117374995,7.589569873184212,13.572353081185799,5.671077058642856,46.708979464676744,2.8703506691535274,9.612257598397195,0.9159480023605764,0.483148353427522,1.0313452046657028,0.3581399532523938,1.9435348124050897,1.1986605400934573,33.37119279026,129.49465023751637,21.025034447839438,101.38176608708937,11.744816961367269,38.10303086527789,5.598818180559219,20.409507918502115,7.38674686696719,57.75346882133561,7.330932870076215,123.5672304890554,2.312612172216177,6.780768676781162,1.3437092711240792,3.323606139058969,1.933850727359618,1.0877363561274378,23.263005672161245,136.32755772683464,51.894477394986744,587.3398578464997,91.62577958540483,197.11568831212995,7.127818811838784,51.20941459002111,5.901346712935069,25.923958306295265,5.782137455788156,70.21207411976941,1.1728712988955792,0.4455951656562041,0.219466413738791,0.06962035490474615,2.034265642954914,0.9087254742264271,21.082372852593416,130.70211773453636,14.90357880454418,42.51592137967436,21.998744397123982,86.8074930645785,4.639967123092699,27.209861583077714,6.981395064799254,131.83648749164954,5.8509812953069895,79.37748443549374,0.9946822711874631,1.9318540526194075,2.179210143125316,5.778869245625068,1.213517907067887,0.453516070756203,27.219783278536205,24.87645858204086,86.21221876538489,394.7117652498926,56.73753829829949,540.2795711500469,7.461042353867992,71.64683825964376,8.476097556000406,101.35658731269366,4.05369205720538,10.479397882357192,1.2318797974023692,0.9808855463616213,1.0338072675272576,1.248935007670006,1.4234558425320327,1.9859800889819748,27.416854649535882,122.144021417293,47.696935984713974,222.56225842034505,31.141085065100803,162.9251463162456,8.8557367748273,52.40862855719893,11.503704973088562,92.98568460966864,5.33204827394552,46.68696580203332,2.1630595795625496,3.7408476434094604,1.2549510007177687,1.8720360636932911,2.4961746139567316,8.493291918796125,32.26206244762279,144.20332968311158,39.47327780526532,1459.3854590113044,16.888616713856862,222.77818224034638,1006.0,1230.1666666666667,5.0,0.0,4.0,0.0,2.0,0.0,1
24,9.476264354611232,0.07343267859887605,1.7253760597976464,0.6710448732288558,2.0362768828376265,0.38746871822504425,0.3443979744237563,0.14738362394662188,0.14230614067401645,0.013153306495634932,0.21869811636765202,0.01900218795748166,43.08783488628293,0.6309506692851667,18.76479363244427,1.1800601000868256,20.465636560739565,3.4881996635685146,9.571137589856614,0.13596095836454072,1.4935240467571584,0.46387663558264486,1.691542733583815,0.597509444144638,0.22437250429633543,0.01902527187542721,0.17843414885415274,0.012885737829105568,0.20267136296457497,0.012821473262009551,12.136204349600579,28.6027706953273,43.619547473497626,6.3305331052495895,16.252707709950847,2.3984471767053597,3.3587422755138934,7.8704649452735165,8.87761475429062,3.5651569379735024,1.836827461877145,0.7042625075140887,0.2872383716893344,0.0350818468077837,0.2803576278157748,0.05629644049635444,0.9757974048237478,0.41043276573598153,11.50805826522102,95.64369371105519,101.19712640431301,178.8640041089651,46.70756291160899,25.921817000257214,2.8641714957227147,3.7252382088916063,9.578573963858865,1.5144302137962742,1.9468741871970745,1.085890876990291,0.44180788450935965,0.09240421472976434,0.37642594383767813,0.05343415417131566,0.9904915031241945,0.32692393219538085,10.393649355192816,60.59473419184586,71.99515134638006,708.5817705233379,43.415927634751505,18.777379578043885,9.529220100276726,10.12824373259625,0.6692807943029099,0.3118371171220364,4.204568615629653,1.7709257796750246,0.31142297516430706,0.05334297984712215,1.0160158181578414,0.6748471861256623,0.16007949613238692,0.009832621428837097,40.19726691758337,10.18399903533225,66.48731086667904,3.3197228706015807,46.24180593569417,267.03565767721625,8.069085032486718,6.055397240016663,0.7607852557658656,0.2701827086781065,5.690094106022484,16.874153235645412,0.17603511519322157,0.01407912124627975,0.8875970812745331,0.30228637438138,0.12193733085070022,0.009629782404553306,26.023716445796747,44.00202185152635,37.033933907500966,14.891626806143917,52.619084838993295,139.68401970072495,7.990696449910313,3.62959584669826,2.3040277739940596,1.3261923645514704,6.4866251028027415,9.563640951167077,0.30957630494309296,0.05377746363431477,0.5554112278594643,0.16598320377316464,0.3895668008933344,0.10203017520807345,29.58616143218742,39.707723182167385,35.549707507299,39.340436684899394,39.19082689679359,294.4883741845502,1011.0,1230.1666666666667,3.0,0.0,4.0,0.0,3.0,0.0,0
25,10.77360977497229,50.276497259004024,5.189788554925934,36.796425221655646,2.3524894892307353,11.846778081634792,0.456844974763322,0.12870150171989184,0.24905353740352199,0.08041465167019267,1.8164587369388785,1.5903327332398505,57.201552477749914,96.33622290916384,10.307513453558949,70.36035573349923,34.102254284314874,33.865351273041654,9.333922894040414,12.594522750100067,4.4806549536172025,10.051974454063021,1.9962718931357724,1.2097330274578406,0.4532339821871724,0.1305750613451409,0.41840657748066445,0.0799848785694985,2.083946371281689,2.193511162614098,54.19552577625621,82.70840533069246,33.14904288590447,154.77698866569466,39.40580752664361,7.364523846751271,8.756198667174528,51.33331709706466,5.262464056761305,67.87940120844877,3.2602585961749733,19.856194323484758,1.1621501360488824,0.9829964301404821,0.3549917179796256,0.2972121284494648,0.8214250840554552,0.45914504247002197,32.666970308161964,6.542372172143415,60.13817416734932,41.504788923644725,37.799677793644676,6.754025299600675,8.728266365271955,16.61711714765003,4.461936104026708,5.954632042890799,2.319191108465441,4.842104588885188,1.2951808619901752,1.17529613802542,0.3262437270253835,0.06708099099061653,0.9358412543665772,0.48242270186166,24.200102656340796,13.968679300213717,13.563130179712594,65.615697535927,69.32560074230857,4.61163863094635,7.547876763934932,19.110631800587104,1.20955907719687,1.3369160475067325,4.762243341808476,8.110574724824978,0.5322645711943446,0.3427941060738797,0.48133666147112325,0.26185778625689177,0.27448065392673016,0.08244128681007272,37.20074251663586,0.5990032890011096,11.532023605236338,20.069593038876267,57.01702174667484,6.421945401018373,9.092427632040229,17.4758900196151,1.1998091555423727,1.125079689589142,0.9678030897062734,1.4945004315925727,0.3366087110124313,0.09007462610686831,0.285511563047632,0.17397817807386054,0.17439501587501613,0.022234865313215592,36.96612927145209,9.159275800841415,7.67595052411241,14.19614789069032,13.46162934736772,10.690384390431198,8.831548938081283,14.373806130625544,1.3571499983033488,1.4008085841468287,2.7304350385858007,5.6130249805495795,0.2567952142928319,0.022090814712512837,1.0250623142731583,0.23010202239278613,0.1038576781825251,0.008060216407589285,37.812470775005245,14.199833533281387,8.995935919363637,17.716395861711273,4.53709288101551,8.678962323829486,702.0,1230.1666666666667,10.0,0.0,2.0,0.0,1.0,0.0,0
26,9.201696041201757,0.28430071386953276,1.1906311532851954,0.49304916619655237,3.2631811474965624,0.6184060818835299,0.26958419022358154,0.023924751501205446,0.13056041348811184,0.013083530206924567,0.1377810657386137,0.009968663032777469,30.787211189585285,4.843096965580874,6.428371315160073,0.28996197679165797,30.77847731408994,0.3316904223567698,9.395022538082658,1.0570316625426621,1.3839435488878449,0.7443384965059521,2.2955856810916555,0.6244466074179928,0.16311662860959383,0.011194155091315676,0.1976649251558206,0.04055199733275123,0.1072287521467444,0.009879722708826437,6.4918595049992085,11.318821639206368,9.790463451511604,9.114140677103507,36.18709510614064,2.763707525853633,4.116463869071204,5.587079067046229,8.43766500141995,2.5691098366414047,1.504332673451132,0.45366802080305796,0.4958714379751978,0.28226525150993687,0.22032746334159978,0.06537828078140033,0.7787183417884771,0.31336522105587344,12.93579995989307,78.76643308525152,116.59531963758232,86.57400084784494,43.31708841875565,17.965287629059343,2.018491382887664,2.7202990631847843,9.599508076659903,1.0453384049294043,1.131286512987211,1.0129462904575761,0.7537000340309518,0.45198089462441865,0.29079924862493167,0.01188719856136982,0.701968049799854,0.2879652952626555,12.32724758502373,21.971527927006036,94.20277083215635,195.62656664800156,25.08340913993268,85.84595556763973,6.089424355956148,3.5773543888675334,0.553540563472539,0.13846218382108794,7.65149361042937,5.732229202136605,0.17139295083932454,0.012494236195090573,1.1420336448980017,0.32890224157480324,0.05253337986078421,0.0023957531714981915,19.627833728947916,127.07575731664038,72.39530049473787,2.1751247343187003,86.34713723048691,116.08364348904641,6.992777654947329,2.373395894590747,0.7562734110296265,0.20144615603262794,7.155305514650896,9.691854974714794,0.1597333056044049,0.012271381642642501,1.1925172376531092,0.2864524106866824,0.1118065870606556,0.007552496696001087,24.524986269060246,99.68644281873078,31.85436128978887,22.016193421907552,58.99992682717063,96.01794958926536,8.206608208743008,0.47066432991670026,2.8049817469494402,0.6789531910105244,7.134428582061852,16.267117364057956,0.2913241151427804,0.02387876772360085,1.93868050605736,1.1130973193577314,0.22459242952033137,0.02189026139014153,26.275862370640777,42.09834045663297,60.76311571735981,29.358290877927104,33.399169811532516,161.34938891088765,897.0,1230.1666666666667,2.0,0.0,7.0,0.0,1.0,0.0,0
27,10.19610152301217,14.523550066408136,4.476105639880354,8.012504380770695,4.018123602941016,3.3459133442806346,1.0118760059564567,0.33435355563575514,0.4080794379572107,0.1507143421004358,2.3082533941781227,1.6035331141705111,63.977206742467956,84.27853967184184,23.189020905982364,185.96943851899834,18.207990078886677,18.672017590699873,10.139803344553167,22.881654821951614,3.7082405590629284,29.78008777691132,3.7688504694537683,8.85174608708069,0.8810111146635753,0.7109163241761115,0.5722008164325529,0.25482229313182514,2.031083213531004,3.715766389946942,28.330656234390478,151.18650420975342,14.696218401193619,262.0794595347892,44.41774166517021,17.90666542513664,10.284498577275553,8.502644932429495,2.8865764114605494,4.2385099418943435,1.297913404210463,1.5361961018546268,0.7359032964233833,0.4448879851388648,0.46943753616776596,0.049426903316880794,0.4294675785570967,0.10718418233991693,38.35402461911036,2.292857853230291,31.196342294866387,4.135973650677153,5.506894731786379,14.56959973075951,9.715406993203912,9.321401041521012,5.124488883520946,18.285124641484554,1.6446386907896227,2.5234637417441754,0.6819126368692714,0.3595229948630403,0.37565761236358464,0.09420219868231078,0.8484575221746051,0.42011265652020513,31.824239494386784,1.1231461822457012,10.141188287661095,24.82574456161972,82.18661139622208,15.420795775891788,9.96457255970348,7.940927160127632,1.0780180507269304,0.7590249627293536,3.0133046409315316,3.4521388209920927,0.32127637109788487,0.05035379746161974,0.258709660442623,0.04254059086606972,0.23454121392497346,0.02056523372004356,31.67155970423675,1.826896889396931,1.5933767607327827,1.1157149257962733,50.92122602856849,5.127878762017085,10.18533861144515,6.7803911732958815,1.0253308954425464,0.3962409936694957,1.9082905173240121,1.3070513444501628,0.22696090897849244,0.029870797823517297,0.3402400418840857,0.053653719712219404,0.13442311559857661,0.013509727267734344,24.539677091866487,11.285302630381402,16.970696417753363,16.22222203971885,26.294906963001598,13.363603134861652,9.942305958960667,4.959855658591605,1.184566525317159,0.5188627874767021,3.8682527857378495,1.1602136561813112,0.10174104113762905,0.008012088919656163,1.046644460379092,0.19769516804207402,0.16355397476245118,0.014529772483024788,23.808306859544487,10.465533139681005,9.353094920315895,15.278685284958282,23.891740995990343,11.55869673437233,1780.0,1230.1666666666667,2.0,0.0,2.0,0.0,3.0,0.0,0
28,0.5928898653754395,0.24324442290331122,4.885658061208804,3.5264852171131364,8.402699163137388,2.5087306404067298,0.7854505970858592,0.3667619218970352,0.18854514058209831,0.03342900355112074,0.3041138097716973,0.048364079117059845,25.179931609098578,3.703708799801818,27.973115180149552,56.850604612133544,41.364733451654104,13.073005780631773,2.222194853922822,4.4490603571347815,6.995338606255606,58.19399527341297,6.151739323942745,25.87606636104213,1.0802172396730338,1.6886504915280411,0.42061392656019464,0.15227090004015187,0.9565871160646732,1.0944152203588435,23.583261647500283,67.0905371833468,26.786186533525957,29.31830038381647,22.28342153402892,181.0584141338183,2.1139873590720586,0.901315502474294,7.883336441575988,8.917631373022989,5.230497169100548,2.933260020701911,0.8176322042324372,0.2766237295271892,0.22620925643435133,0.02265035160803082,0.3537997928590414,0.09243523120369025,3.3193042451277193,7.880810847520112,93.73165118004665,7.52935415441371,74.08696620720477,16.099417938581436,2.1786920017570504,2.335082612194285,9.36747297373685,22.784154965300683,3.0038599575723497,2.9245471639093696,0.8021909708699811,0.8900564113108544,0.2559246530738074,0.06503499745621195,0.6123040719188688,0.2276995354749974,7.440502127340017,7.56689160031124,25.870586757817545,1.8365023966328897,48.737570518304494,121.81147216632867,3.7713389613411645,0.7182462108509597,2.165327909048493,2.7728476333810073,8.588278557643417,0.5365743129345363,0.5306783142992226,0.11330440973492538,0.2827878595976359,0.07432629395636053,0.3165465782027045,0.08967502622788227,27.442494810120134,0.7154173422273327,53.27113335979872,96.00462592216648,6.151056548780646,19.39471941024035,1.1106645736481595,0.9134437527725952,2.077423516691716,4.417872025300633,9.414468556396232,0.7053557775095961,0.6887807281479078,0.40809210284321856,0.44956772628024777,0.09350220825249883,0.10783251274533691,0.0053368255795620285,10.672759461747713,58.129690898543146,17.050331250202557,103.81740366855357,9.367044381119989,24.187088951558287,6.167183685770705,49.468070463376186,3.4568408691239627,16.91684927146609,7.596927447321494,42.264120854271404,0.6871007221010331,0.33424377225557095,1.1475829405725495,0.3828163407008224,0.5168627828575116,0.13039676844002615,24.801924206501198,191.6311826079078,44.91071377903962,123.74329842087397,21.717463091385266,23.965012645633784,1098.0,1230.1666666666667,5.0,0.0,3.0,0.0,1.0,0.0,0
29,9.557964143674235,0.1623273633173131,1.8501061145966673,0.4838589270813431,0.8948627296558096,0.07433784433200695,0.18648157815241123,0.005195681800392797,0.06462580999763574,0.00215865133106496,0.3198927616053992,0.036606537960899736,55.810422282573604,1.1495256878997222,15.052409920810668,7.239223740566317,0.2575129751608638,0.04380734242792174,9.720488067500847,0.18606452997364803,0.6161423070733397,0.22551057835215413,0.3508034555149103,0.0386001734846694,0.11259930576140076,0.0046479399402220055,0.0832523804439149,0.004030723695536225,0.2603990323495212,0.020027769624332635,53.9426839213726,0.24077115915296954,18.82669549737095,3.7754390380773657,6.762119360206541,0.8467825714953041,8.202563297650046,0.44785540953775954,5.265126476603106,0.8812443273762968,2.013665345089495,0.2638560399425358,0.2813715459394061,0.027107501243409816,0.13887150341467855,0.023306094980171964,0.533584138257275,0.14467895003043824,42.67039420387962,2.7807732977913746,52.30450581322032,65.04206756253109,50.61894490896178,1.3928666646344536,7.459442982003709,0.4499413669007695,6.5467430481240765,0.6050959501215184,0.7054498116062446,0.3059960483599327,0.40425063686229845,0.07930171975433122,0.28427620672944104,0.031517641765969176,0.44413360011810055,0.10037963989651444,40.50809182411383,2.7747640056379024,9.7362478547845,37.6872986311611,37.31569693699356,1.7950136180143188,4.030647428567744,5.700145829788612,2.884443793415038,0.7349374923464933,8.675811235569725,6.4335120810593995,0.351379115740607,0.07551725351338995,1.2510724942977272,0.9775117119565657,0.19070306604089263,0.026207853024135006,14.78320713082621,39.934878503606264,64.74045918992728,23.558207270246154,90.48139184368543,29.186106849180714,2.0017136363355896,4.73699875207301,3.184618520342614,0.9312202641466815,10.247419814432948,3.437811707553917,0.49505230673581113,0.07705056488565881,1.318826150741767,0.7871762414770894,0.0920273720658161,0.0052963713037113185,14.603799030615772,39.96801503978837,34.775038206872864,35.38866431904683,69.61316047227088,12.351830006264773,10.516832690593624,2.003220615858178,1.435867741580837,0.21020675265652872,6.479229647265978,1.9879212429397408,0.1547320996527079,0.014526734633789284,1.5405132075971808,0.4531865800840334,0.12022744644287019,0.009103767862586102,24.195309363120842,30.177790080194214,25.601649899128056,19.828352374911756,52.9007951720687,30.628866463223847,937.0,1230.1666666666667,7.0,0.0,6.0,0.0,3.0,0.0,0
30,9.075964265618442,0.14559381472407093,1.8794197836844635,1.7134860168983317,3.183758213500346,0.1283746562001856,0.1763286616302996,0.020910346622618124,0.18759662040301467,0.015697707433784666,0.3732478744562038,0.05071428070798778,31.59552258893478,4.526111655231843,11.59489205652032,8.135894700563234,25.705398464991042,9.337604474601335,9.564090374087499,0.027793204314141937,0.5047191331116867,0.14279522511410106,1.8376200479909408,0.2198257577807358,0.1325121240537375,0.007268121747479155,0.10435674373206706,0.008586973459802258,0.18387523144464324,0.016892544212879595,13.183079569792945,3.5755797745579607,5.716050792331538,1.6649473738242493,15.567830921204623,0.540000004565696,2.1840254503017493,3.7548028031722245,9.318723249041344,1.4155672899103597,2.165751946366523,0.6534649249339047,0.3804312741830329,0.06858341983019926,0.19432008243743176,0.05029752532330262,0.8728971286476706,0.48300401251010966,14.06052725275686,23.396396101465392,101.76215343632974,56.24797027967818,64.88893899838787,16.162210453336733,2.081898619366948,2.55544585566027,9.787965222823718,0.6274776892875512,1.1420625016585855,0.5152048288571557,0.30548042896942595,0.08042644195382363,0.20952830537153053,0.01024129263528412,0.7357490079300402,0.36775615159582353,12.252281873186758,22.48522171536773,43.646721106915436,56.11760563579926,21.475761342639764,6.225758616865659,6.920685677488973,5.9031884085224835,1.0399049084541225,0.1204051830192388,6.8348890749876166,8.99838016472893,0.25733782512843917,0.052547078249022716,0.885142546670496,0.22267457767132384,0.17716567805960529,0.028936854834776603,21.38060170953924,150.00428731499758,56.8277438770641,2.965911912442001,85.24263391415936,104.29030378163615,7.9267360907940825,4.146131426500001,0.45002198363808255,0.1186176730826094,5.185674771235502,17.27697213271723,0.21640223147749732,0.025436997030709892,1.0031346200911466,0.2893608206039867,0.139980875933158,0.008935405368409154,27.44375978422559,84.63448229159617,32.00167501465348,14.848480375404666,50.341726949392275,176.5684011428779,6.5071072341982,5.6644265475731395,1.7154475909350864,0.9884971025534438,7.225111253990614,11.300013969362434,0.5493921800093218,0.15629868840642125,0.7900000932926604,0.5468658464635945,0.41750524692383617,0.13247131406846094,29.6867482760721,87.90268287276454,46.00856604457887,25.136972765174075,35.02288160503896,379.45426360774024,1111.0,1230.1666666666667,5.0,0.0,4.0,0.0,2.0,0.0,0
31,9.200152188293204,2.0856168402222277,3.28500378174969,3.378399148108043,2.5567287891364296,1.697193401332723,0.4636776832755932,0.171412362464221,0.5489675705975368,0.4123910285865941,0.9103329976681959,0.3218461889100362,43.95898260952028,27.484960161673353,20.398661871463798,86.421033770617,8.387192132490233,12.374955731130317,8.709336469573362,15.081015527241922,4.084035315666317,18.051426872454204,4.175944451227291,68.33780036661526,0.8780486859912283,1.132352129093982,0.9571973425297697,1.2002610904627542,1.5878806954169404,2.8760015951449645,43.67228333023954,30.005098984923983,25.506250063249887,173.04497077005232,11.561162730601946,174.65429135961148,5.309206522939619,10.86644928659267,7.517637543441835,10.023134201401158,2.5669465070544195,5.519932971828499,0.6900547606377931,0.10745048140172041,0.5015450737916303,0.1831294555550464,2.0689615287225354,0.578388866539788,26.408567588437688,173.2888185458061,80.13241796257083,464.92520463052045,43.47940079239774,92.90033601131539,4.381366846613463,17.659659698443793,8.279247466998159,20.74726685328028,4.386944250457666,30.826607334184533,1.0119784519245678,0.9157293843961992,0.8369703712288198,0.5342840278668118,1.978970505050884,0.7803285321647883,23.21556213769046,131.59052257546963,17.67091038303588,64.66323741192413,47.90211054904402,126.36649162227542,9.425900037623634,5.0759164341847445,1.5112240979802016,4.052993708765005,3.8256650972834305,4.65859781757794,0.276411935428017,0.06841927921658661,1.4638350591186648,0.48995994278719446,0.5401967177841012,0.22429864310256742,31.48807461005597,56.74647806800296,43.790108862002036,85.49457666066836,67.42171361623717,266.4776594975294,7.809017815865761,5.743526492943143,1.0998178004356456,1.8989139481265205,6.508856148020295,6.593650802723579,0.36100021487656087,0.05132252751214849,1.3463706428922082,0.5229960213028488,0.5106683457501171,0.08941252733267459,19.59491296642083,88.70074477834105,17.311884903710737,16.15329922182099,61.70521621073573,115.5809069380139,10.351567473293336,4.596069666821359,1.434162452110173,2.731146297735948,4.0020798815198795,4.599703839560972,0.4534226117024491,0.06096435462243691,1.0134072476316798,0.6813022451498825,0.20497695847283587,0.02344135404296153,37.20084619128014,14.395158945389058,28.87522582377284,17.58723296120723,39.66049427631473,67.22628966691057,771.0,1230.1666666666667,7.0,0.0,3.0,0.0,1.0,0.0,0
32,9.33241573838163,0.19975908167221545,2.8066170629391,0.4714622069704315,0.9457013311464925,0.08535141761367472,0.2039260909861831,0.0074667672228989805,0.08170890937124432,0.00493570050387006,0.31163419775418505,0.013953105893660604,52.88829702582241,1.6403604724625516,20.133879803428965,5.091408280167418,1.5331622352284833,0.736407966734786,9.702799300516933,0.2004752519172461,0.8756282566007504,0.1703335878461311,0.6946971577953948,0.1279587241141575,0.17478294214060577,0.005697497014857801,0.1465581906237832,0.005079867584922527,0.1789110247776959,0.00842007608012942,53.27885206868826,0.14093619170755944,21.672983863136984,1.3643609377091095,4.966379171560619,0.881837240618042,7.824339429209055,0.7701654735020365,5.851986065383785,0.9786556691138422,2.0644018086027507,0.29771131283861,0.32408212321427504,0.03023356954124403,0.11734281775487726,0.006043272897846944,0.5670886217377895,0.030529236957675506,40.7681951286379,3.2261328203020403,57.343766141528924,42.31461561542615,53.451610092289194,2.4703879091310252,6.695392845090756,0.42226168388082624,7.2933156943518265,0.9626481382655907,0.6489794636068266,0.26579355925483233,0.39020651979140997,0.040094069561299545,0.3066149670361303,0.04433797992545399,0.5076732312536929,0.02554138479998537,38.01943931894854,5.443426993842961,4.28682993424379,13.030813195001798,35.331727209170005,8.91992777255782,2.640760485790978,2.864966045339126,3.1711407643704375,1.226119794392012,9.590137280708502,1.8863388998308712,0.45608782497174993,0.10760483501420783,1.0123103349046274,0.8069111298760823,0.16257537145182982,0.016279784494682155,13.657813397567134,25.977483802756144,68.33628564629673,21.00118845115037,91.90274514442633,3.2475575924631546,1.1860731867707743,1.6874023990943747,3.4057043958301385,1.0907939716258368,10.599796972984125,1.7787809449096854,0.4952284263000508,0.05548763100345426,1.0746882876211947,0.637223177732743,0.14915528975442544,0.016620679235069158,14.538200856732928,33.66090214771318,37.9087238784664,27.11413699973169,70.11291276915999,13.603035281485933,10.723209475682786,1.5559425989002869,2.1061787216131354,0.25544157079006286,5.9637839419782654,1.3154548112046711,0.2316852407991763,0.046051637865294114,1.2725561364315265,0.4688347444034523,0.14705343877228963,0.014578064476114944,26.07320615279773,17.431688896703335,25.069363822621746,27.16050258985835,51.035650741955465,17.47405308718545,1042.0,1230.1666666666667,7.0,0.0,6.0,0.0,1.0,0.0,0
33,9.678704277542996,5.372838074108417E-5,0.23868319022754006,1.068323617289382E-4,1.6801782974526902,7.461494150073786E-5,0.24651903295812527,2.9548076037590645E-5,0.027244917440328222,3.6170289176322984E-5,0.010391851255722144,2.7493018631143434E-5,45.49006060135266,0.06049549738792792,6.457654046618249,0.0765126337314366,8.71098176309885,0.08830040591308477,9.565632244772162,3.158676809834004E-5,0.46064249641639143,1.8711970628367103E-4,1.8195417616978165,7.797120578908193E-5,0.02402690910418664,6.337616966014909E-5,0.005950214854448318,1.8282493089550154E-5,0.025372173498607865,5.469358860197464E-5,35.79106921992026,0.045660302991710755,26.46912177535128,0.07235104674737687,5.589551255722676,0.05399079546254509,9.667703502434344,9.321960442232941E-5,0.11797388372096149,6.453129058596865E-4,1.3860511868453222,2.3309620518720646E-4,0.054886107510032735,8.536602376620857E-5,0.00505299172543669,1.497171758794024E-5,0.02216195859280049,2.688816770074379E-4,39.47321634844315,0.7053825922573919,14.35731902792434,0.9423248235417762,45.051034753972836,0.5847195805222657,9.446325893244467,1.3069880782277092E-4,1.9935701592894626,6.792401463953652E-4,0.9342595053113196,2.1485321492036195E-4,0.19610640406608582,5.37490484119181E-5,0.20907559535227532,4.826656831877709E-5,0.02212679345826503,2.596845758337936E-4,37.16304116997837,0.4817045874524453,49.70882828767635,0.7677747669524468,37.4878934749887,0.7284268103199659,7.899680649938662,2.940092622610478E-4,0.13285956106895258,1.9865000271982174E-4,5.748581102071714,2.2897992512245602E-4,0.22049970235213762,3.9355137384637234E-5,0.11352364460298837,7.228363926475459E-5,0.020590024719338032,2.027008884557016E-4,17.608165725203584,0.2952845367998025,38.81123661009733,0.5995087501111038,83.55310815227918,0.47762898579966834,9.373112095288993,6.854602587944521E-4,0.11779100761925879,4.2467665474988617E-4,2.453246812189906,0.004371453154911881,0.03837261994250026,1.5596161850800459E-4,0.20728209134468362,1.338376569708521E-4,0.035126256291785334,2.4680192280383893E-4,37.47111982550503,8.127929895349679,12.520992535204927,10.059531349025134,33.63470504697689,11.408057815594848,8.385746735186617,0.0015698937849379388,0.7702115232294257,7.179060763405082E-4,5.0390920520814,0.001471892399526444,0.1597124542579178,5.784508936633037E-5,1.1999341998218505,5.506692365389534E-4,0.018191008303268266,1.848381217402881E-4,38.924268927455934,8.144504546116746,8.302708840567218,13.912659725458868,12.202493490266406,8.944059641197901,490.0,1230.1666666666667,9.0,0.0,8.0,0.0,1.0,0.0,0
34,9.333004715028872,1.1805058934867557E-4,0.16508786786686291,6.386717298763407E-5,3.0666282551347717,1.5052422566366145E-4,0.2165738344192505,4.803135660217738E-6,0.055447594993863224,2.5482281468882037E-5,0.012284330523395833,1.4610210428408396E-5,21.44308175331305,0.05006008282101014,2.490930283365171,0.057404927123240274,31.026885671063887,0.06502467134277096,9.487343709330913,4.667666149523855E-5,1.148753224325574,3.4020319116032444E-5,2.015570689824002,1.1736516675396295E-4,0.03995604973194028,2.6598697083597553E-5,0.013405272728245906,7.181202207149318E-5,0.020858446251570194,9.832558237032597E-6,7.218429628482535,0.05929674194732094,3.781439367404654,0.050657374744515225,21.32668034892437,0.06559740870456618,0.3416449922668047,1.77214191655951E-4,9.696531855370388,2.1256755681967252E-4,1.2550146422110313,7.461233681761621E-4,0.04289971918544986,1.1096429990875495E-4,0.01931013231558248,4.1573796124700306E-5,0.01653219837587604,1.738442640346312E-4,12.597557572293873,0.49101657843783486,122.61846425710631,1.5382429816349932,46.37787918216926,0.6521100846742556,0.9337151070271642,1.815993229574968E-4,9.70567897134576,3.372940077790687E-4,1.6961179636726695,0.0010970708819263103,0.1930317936603688,1.1589887434561149E-4,0.15539931401240925,3.4018882532219374E-5,0.015854570241106196,1.2663496493824973E-4,4.896044847393824,0.6989272756379186,63.24821948216967,0.8654451793441144,14.690966724364225,0.657247307428915,8.931204244124988,0.0011406917801764927,0.9381681991017554,2.0059240513379113E-4,3.646514941838162,0.006249051333385022,0.17960654482368596,2.7261607150054278E-5,0.11536992593737673,6.475107644650571E-4,0.02233488431242718,3.454406395310122E-4,43.18126590192811,0.27482755207742043,58.59020053453682,1.0222006804622825,27.68504249951071,0.7892243777847316,9.272436268073468,0.0019769580348101327,0.18727295901164537,0.0014230179085296293,2.9479092251170766,0.009392262957829656,0.19484501646077337,4.910835327634165E-4,0.17696288418917616,7.450764657004605E-4,0.03098504955198208,4.365403125546936E-4,33.430521405432835,7.478275387816328,31.51992254020754,11.351022782688458,21.913390333002265,10.595231849483335,9.845499803212064,0.011928776046755414,0.12156888438207829,0.007991810770084122,0.9019198619629726,0.0055463117889957975,0.11592828020576604,4.775053901818534E-4,1.099611499585396,0.002733493562752526,0.03461340498487073,6.412465427735574E-4,38.76749828433202,11.198081483061678,47.79817918509491,19.331296410185875,15.509997955038529,7.968497179538364,1073.0,1230.1666666666667,1.0,0.0,4.0,0.0,3.0,0.0,0
35,8.476908146349851,34.47211494007491,7.284018944179223,45.15054465554932,8.775305676066186,64.30808542231878,1.8438358886921702,2.8498643341206225,2.0618663950830944,0.57829170578503,1.235465933545685,1.3131837638807498,28.54004814383412,506.54865238019335,7.101271003238426,11.914589518973692,48.31474748721793,108.99213917178437,10.940539461768363,142.1146594531847,11.789016571194164,152.0271854817377,11.942258731392789,161.98058358038222,2.122365495300667,4.764272130594004,1.3536039216055205,0.8403282885854908,2.273213355009221,1.7130347496599556,18.93115214276905,139.232580805503,34.75343253395774,422.9649961814947,51.40730966615283,271.46237398809967,6.634060361076239,28.13379542943127,7.195024015089451,28.474948062334718,7.860434590784972,60.10601406711471,1.9316107217407177,1.3191832099815213,1.6276326672643546,0.9023569452175492,0.9981759708867339,0.4071254067174029,21.08517576029047,314.23809829707596,56.16557423930523,320.3148957986722,13.5469960043253,100.65158514786805,6.427119214611112,52.435167719921196,7.07333878477004,44.58661586351362,10.627114693611121,45.740670770213114,1.3781713908923066,1.9242571920094587,1.743211447253577,5.366031998196687,1.2148974753881627,1.1785521759716169,19.284980351520964,331.4106495414944,11.179605064036187,49.07871777443163,81.81779609238806,463.07338973496684,4.929358468444879,13.706076752602133,9.305383838405294,109.90267625620577,3.7176404821134197,17.364342526047956,1.4892088830594188,1.3122997480252279,0.9066277303625175,0.37939611304361004,1.5263444352895021,2.0845719454322476,28.329465873970474,282.47222465040596,22.459106581023903,60.01679749084394,53.9406409460651,56.45142223170891,6.0597492160260185,30.783622193305956,9.213290590842924,96.35162885440019,4.76078957214582,26.977848855097633,1.0998019307980713,1.0651021452716292,1.4003951109730262,1.6062846044921621,1.242382785901889,2.4840895160898344,23.51804867100494,258.4093489959762,18.63107224338311,90.96481252748022,37.141503168531685,45.96697939234359,8.69870856435092,83.15350123280506,8.910316523995775,96.48236762899887,5.36418989174499,50.24887725796571,1.9742526381992358,2.7171526143922264,2.470789030163495,5.942173282142137,1.8491442356535719,4.9940665887454285,29.83141722560914,115.79209529548883,28.12264730701269,74.77359001950336,17.19840956239168,75.75074521096585,1202.0,1230.1666666666667,6.0,0.0,2.0,0.0,2.0,0.0,1
36,4.487394551430975,17.0106961925205,6.436722408726134,34.915767376335076,9.178503485104024,40.635181754371835,1.9705268077875588,3.0234561815705723,1.3221772693112985,0.6608606017076681,3.1950430522772892,3.0226577978741545,8.287303738911783,18.135300176683163,25.05580435508539,177.23837605534055,30.464075366481524,203.39356731287154,5.498550918168766,15.790497468919893,9.702676985258899,42.27505514028017,5.396929784639438,33.87002451998767,2.5459518415376174,1.2992715853204906,1.6439156219101518,0.9125041417995994,3.026616230483883,5.272453446062224,17.361629729428568,108.01679071236435,43.30771712626307,124.141668927581,26.824107467635603,91.82674330209092,4.120819800889335,25.949872823071644,5.06915780055252,30.721288691698884,8.348907910903131,31.22579151841616,2.0646609569907435,9.099803040076058,0.9032503022881578,0.763222876240757,1.160708265159229,1.7284000713098802,13.509376425388432,155.84039359059983,61.98933580887219,86.52720815066579,62.37132490173844,244.67931586460725,8.363431991008687,28.065298995006493,6.686381054195491,24.3685332905286,6.255307028547299,21.215757962065823,2.466198863184526,2.0829832055110757,1.241958403825175,1.2421484732457369,1.6169170934191235,1.5314432375899372,16.979142729777934,92.07438680523659,18.435319589189263,189.61812275195325,4.891779249118379,8.794755778055249,4.882715373380833,29.719367427563647,8.50815278503174,76.58188778140342,4.444886668161913,10.623850940162846,2.145846561952071,1.7876571243896335,1.2460623516370195,0.9209008173354118,0.5926218399285408,0.5975036695228673,14.607937895177194,196.50602373967743,81.25324097940745,232.0906372601217,21.078047955331723,202.431092142937,3.5299284470783285,15.951489865446678,11.048260043352103,96.14995189593894,5.566963664169446,13.491329422365771,1.7870662874919323,1.3534644516650687,1.4522781121469495,2.184244168692231,0.6071446543652756,0.5289803399820807,11.878481057557194,81.14864482562183,44.22637254541571,186.72464111087777,18.03565749846214,242.59771005672093,8.215957055160821,63.89323270652,11.3608502277658,65.84201674256988,5.149453667354239,28.47148752187748,2.1174362786653,3.2016606483662495,1.808445677715392,1.4311363367324996,1.6200348786116878,1.7968988196074223,15.005609290658935,63.16974120061141,50.41063544769918,738.837376590786,16.46659345419939,48.981677816372304,1139.0,1230.1666666666667,9.0,0.0,6.0,0.0,2.0,0.0,1
37,7.649168785769215,39.06277964578194,6.513226259923116,26.886474597472596,10.75347509192041,121.3761224104553,2.029428348099151,2.9874131371705177,1.483696447485242,0.5802672500522605,1.7954713968129075,1.224557957639707,17.874684155849387,116.33812136074819,16.0164646500152,47.17420485390228,40.640455135629196,10.484977423173149,9.028179839622876,25.056187191841296,8.142200748166761,66.40064321906962,9.204307755470769,79.68058395218833,2.1242706241848115,5.243372654918043,1.58324708429373,1.642773848271712,2.6311916062504452,2.5687160081280367,17.07510665391595,120.38027181122058,38.99423903473153,277.621067244297,30.36665918955133,234.72123420652932,6.971473263499658,53.22356491895644,6.175108470392129,24.829921419578497,10.762626554601448,66.14795299358954,1.6514739218083294,3.6455544110800564,1.8335710271638779,3.623826745773224,1.3287026579299372,1.4755316609098819,21.89148593540034,72.8948587383548,42.436896190170415,219.26422020766938,87.97284988529427,46.73813076355569,9.825498407167837,57.133036310164684,6.469294676003008,25.585416535573117,5.547474878570758,54.64556059638815,2.4584425862663046,2.400157397292353,1.6879493909125978,2.0830443078624743,1.405408951369199,0.9637195927685615,26.185804852892545,98.30334878278758,50.20720029468379,501.569581881088,10.01958200717268,27.12962517678698,5.290004972707141,42.491941566921255,8.130309710408993,37.99578670636062,5.698461812636084,24.174492267263943,1.6065407903164564,3.5643173156822363,1.6530087876541555,4.9573289878900715,1.3762553566066194,1.4655229324218373,26.981577865840976,93.604030027798,88.51681606828674,100.09872469998973,56.56483702226119,227.94704609243897,4.512021573660665,16.21448905416981,8.392905013866661,58.142653397894264,7.476245856974736,78.97848132348194,1.7535736813394676,5.940665769289485,1.1978768482496422,1.6693897212041648,0.8644319110596168,0.6998228672881377,14.002322764436075,114.46377548871187,37.63738716141251,491.3974525295067,57.052814042272644,50.29335726854542,9.320609214877294,104.54777875952375,8.42986119286088,70.75239272109576,5.1003511695976345,42.44675014887385,1.7795185217699268,5.464330910874067,2.137090490161141,1.3531929721741014,2.0881605037172473,5.374000450655063,23.984487624946706,239.13240485153062,46.53461413245556,1010.1167517051742,33.17890514026988,50.4775851351393,1110.0,1230.1666666666667,6.0,0.0,3.0,0.0,1.0,0.0,1
38,8.311324535261008,54.29486615215411,5.178789586998707,36.344403396967444,8.942740031387196,34.10759126618459,1.255322476194725,0.9564096871297137,1.749257180070089,1.9604782936306029,1.2017914154819378,1.7122278504587543,23.737967068745085,352.0874169210035,5.511353105429776,10.083612090972222,40.200402787894255,143.70660522703383,11.636465343254164,106.53601159818696,10.930988630480018,157.44257738244244,8.605949386784976,113.59131882751929,2.574155500266424,11.221866778236429,1.8912010947627222,3.8032695918461665,2.3216718729154384,3.501039553282721,36.172295294517326,77.31668645244373,23.41375782790263,303.416042211828,17.82299335830468,73.34765983220174,6.714330966807594,37.396168073116556,6.140263853502298,47.0062437008887,8.25246785765837,90.25003212085498,1.5256303828979327,2.0502368605963355,0.9190940260271395,0.3366279374380117,1.787777542298244,2.306256230753364,19.072589375756003,115.30803241447406,73.49776238055269,44.267345349163875,74.26140172028344,121.10086424606048,9.903010963408414,76.77958331020669,8.549281046194725,85.13362388818958,3.6944317757960192,26.453717380792177,1.4456906377603416,3.38782738037427,1.2768828450617464,1.2697910181064154,2.9727865287587663,5.998903343452898,30.974938558152886,195.20566087150334,17.413079698962612,132.2547455013083,44.18241406275221,128.13330755996049,6.530428539191888,48.54886934427081,5.629853109806037,76.9540563263088,8.633963972022219,100.01855987981824,1.1948080530528686,0.5066529137344399,2.052107409520213,6.3478516013204285,0.5856873396243362,0.22720695744832262,20.20444595468931,245.88829370460923,62.18799316784567,53.127501592898625,21.277156868010515,408.2726847319031,8.630419341339307,173.88225899373865,6.4361703299170685,64.67013989086512,7.247314069574037,54.68130104276432,0.881652563133023,0.41380206071211345,1.928199489624047,3.6818034023503263,0.9749706143682654,1.0962498575712474,25.64626721021804,188.59323287220784,28.151262724695126,30.82139775404527,15.962205119862045,91.57842013030456,12.509324044235482,77.2458061818184,8.876859010682125,84.06418783768888,6.471642722152481,34.82375837525865,1.1235696611048516,0.6029353587308104,1.9837895256336318,2.108730891428598,1.822357606018647,4.742212097828997,28.163477029990066,213.06485173164228,43.08707249854222,67.23130573443508,15.109231912892712,68.15015657760217,1380.0,1230.1666666666667,5.0,0.0,1.0,0.0,1.0,0.0,1
39,3.16455152680066,2.8062324918395114,5.113613409567471,9.67054133669478,5.607703736005735,10.33524376989572,0.8657453693563691,0.4748462708432214,0.559316204454315,0.3454627103326073,0.642607047199464,0.36232844992528024,6.126150129870935,40.414475523809834,26.332784854676113,176.70195316682114,49.8201934877506,55.974488936166466,5.408384830529286,4.205464981158564,5.58470163377356,11.95771032407563,2.6827742025748758,4.179715680420576,0.41036231113859445,0.20821134780086561,0.6886790259736436,0.5924351982201899,1.3483848842091797,0.4254627754498614,12.303132299303023,63.40402583761147,26.563345459867115,20.746213109758212,34.785146524098295,60.434443079342294,7.807266417505943,10.12591343578625,1.6792218878495793,1.0712980281527666,3.9638809155334127,10.14634411580247,0.40408617627450016,0.28451208787830845,0.8600748421793635,0.3428065893641488,0.5892880888394088,0.11188403127827978,40.28899597924603,210.70771357581663,59.839764208833046,86.22560148945361,81.0080841947193,87.74618444832282,8.716988748755337,6.763210141225311,3.215264129875736,5.988997125657032,1.6756008349528366,2.6047174319023183,1.0153885948248516,0.6170412854395791,0.45416305857625877,0.20150868476710063,0.986162273167086,0.5558661031716915,33.07308404849581,240.54389645921793,10.670379239665575,45.78661320342375,20.59804956183946,41.642938835357086,1.8709202946283015,1.054758370441145,1.5949184831678251,2.466068015954897,8.923691059932235,6.244498885182171,0.6083946279673413,0.2558904151127043,0.7362348192548456,0.16666763622671904,0.47929433807114924,0.20106570562873022,20.61759088059102,31.348642173849065,72.24624999495578,82.84013577538349,7.926348500507922,39.16378760021594,3.89853496301519,11.210280377841068,3.049410935091086,7.819217690790993,8.797428633555892,10.353759149111305,0.8437440761226452,1.0307195888783391,1.3838705955735169,2.0039038284872475,0.7312511548319108,0.3994005375501308,13.403147725650102,218.3280223962032,31.91949130286855,57.730678996378835,11.722659595249112,47.81966713722259,5.660841479651199,32.279208041941544,4.367795013999643,11.39461009211005,8.87185263633728,14.42367590170277,0.9933673234363972,0.6302192180666502,1.4109074688893704,0.6462116957673787,0.9033989883730311,0.8970059412797398,13.874930707876347,117.0968873511098,44.7023274760601,62.912983644620944,16.22682969429153,45.30135190353745,1113.0,1230.1666666666667,7.0,0.0,4.0,0.0,1.0,0.0,1
40,4.946150984026276,92.11990242557034,6.684174152198902,47.7336137976783,11.328566515448788,142.79803643849783,2.4980430051353415,5.810613412030668,0.8024659211237911,0.428725105937996,0.7300200087613857,1.0885539432041016,7.173975419653349,16.7577100337944,19.436317924625616,52.060366682523004,22.460165664184192,57.29095529930021,5.69068864345058,45.25813905631723,8.313474433727501,41.35209985002306,6.252017145314492,17.55749275406839,1.1404596364826987,1.4983754033198016,1.2140675510225956,1.1542010220902184,1.383062277481822,2.2824634902572813,29.286766651248143,41.21353405514897,16.129197559080833,19.098384506936338,18.21249066970565,49.096130470545724,3.9603957745654523,6.353870588778004,6.1354173368289455,85.44099820452563,10.48604512608741,57.528609420331385,1.350941742281622,1.7208070968990874,1.6080299713841277,4.0285574797958565,0.9306345597479092,1.0196667733763902,7.50813685813226,29.308779877218242,26.46301420069923,148.4533394239227,81.70963199079529,10.7529703576943,7.088843588832735,47.6208273425123,6.438467229077639,61.80079830803298,8.797238339077342,25.64911217958316,1.5626336693886882,2.669894276253901,1.1036376192904085,1.5306705216137066,1.4054080819718786,1.2042421279939246,15.103116114770085,82.30195346420714,5.01328811923827,27.71909160261223,15.896982584117858,145.47133080363406,5.19090869565579,9.024225754481284,9.987188961880266,66.06631274629741,4.676948538813971,23.01005616364744,1.35128657219639,1.2424031221508087,1.1038765158804427,3.2549055204575668,1.2443079845036942,2.0277780648247217,14.905757932746706,159.34774673872911,85.51775281291363,268.32015929168085,27.870002447081006,107.30764833743937,7.086400457958052,58.2639194075354,8.492009510001369,63.53934747342061,4.390340639170536,9.563348063534907,0.9947523971603922,0.5709230154440669,0.9621940378930943,1.1968122104204055,1.6881101693196052,2.7539179997692584,18.78071160853094,215.38534567035506,39.28793454465787,326.2910188313183,25.330593944581086,132.0933311358562,7.4859186669827,86.56818239877038,13.111707476052372,210.43918736502746,4.754829393130196,38.74639763523962,1.6591581213865276,4.216658128011726,1.2393461771170833,1.031489683508583,2.4183689746697827,9.525494838045615,22.027464349654096,207.2390419949188,54.375350122116814,1238.0923121288627,13.772995391906786,54.57851000864171,947.0,1230.1666666666667,5.0,0.0,5.0,0.0,1.0,0.0,1
41,5.997051800412611,16.368496912934393,7.258411646997633,38.27098142206264,2.65567658735393,10.75711933718497,0.6095046094534072,0.21028173889794538,0.6421148257391635,0.1659824843661096,2.673889361452773,1.2863545298600119,24.452781842636668,132.58953476821293,46.47065050739887,31.350688203086808,4.760151168531623,16.375124045977135,6.209565434204645,25.6557337754919,7.689725717360323,43.39277757026911,1.9934810958090738,4.687613531263518,1.0024483905881951,0.7055513173125572,0.5159667165144655,0.6291435692583904,2.862761443881087,2.112948818895406,27.14791747016355,145.93441015494497,32.60313398187811,31.113250400105677,7.274267491722895,10.045737657261812,9.251849085831445,18.77958167004524,5.447162935433309,20.219865936881686,1.729535136887542,7.1291604079698425,0.5188656213331567,0.16392920135841982,0.42810394262032936,0.23597889946526465,1.393208704550158,0.6034241152343951,56.342281625290546,114.33252413448142,86.34411173418533,562.8336874251903,41.951070895864945,10.533183960493608,9.453090224876878,26.80342342228678,5.4057729861214145,25.042274050648572,2.467874567062894,6.526524878070415,1.5597036143837975,0.8213393355975812,0.5753316117358233,0.3600812866062489,1.3511080345646902,0.8822318937195205,45.71466918819207,71.46621068102583,22.425445345807667,108.76547155166381,42.9863799071509,35.42079951373331,3.988999024539496,52.40636950021488,1.0842682459383957,1.3751162325688697,8.739856828835386,12.772091043264393,0.3503950501153292,0.04495052069994364,1.8337484220089006,4.302569842565861,0.23975589258196664,0.03795236209654847,28.43223994231421,188.45469989313403,43.165395878563245,6.657895398898839,18.215125154365193,90.73630364529303,4.792572055458407,47.46052014196063,1.5108341238161256,1.5290585562751653,9.423661082859867,13.340090247167977,0.18763715687615812,0.029522061431391838,1.5004696534861894,3.7193152640856706,0.34760176823214695,0.17003999933260505,21.197552401172228,159.67414672399457,17.586497488100665,13.4337648323788,14.15971248430654,39.76776162786205,7.267579601323309,65.52582111535641,3.069187242784037,11.82700117333553,9.629381579801072,26.161438947607017,0.34374355212285007,0.06964096541158961,2.0712544525827257,1.0472133405617159,0.45478762757063895,0.24163300652694122,16.582690302194056,294.03168343451955,32.903839899488716,36.362869955325095,19.956816667367605,61.775530340252054,1075.0,1230.1666666666667,6.0,0.0,4.0,0.0,3.0,0.0,1
42,5.354330060219446,32.455932137125764,4.836563051608969,14.66140291913415,10.13428078548721,35.812556682697405,1.439748074897865,1.5338748175518944,1.5730111368062083,2.6951041499114186,1.186604351517244,1.6009708829489606,13.549238475147357,247.7831617123083,13.61980039176862,53.92197987630303,47.97281694018151,90.62670379646579,5.141959288242188,13.135551600547116,4.6631855636465644,19.532784967102902,6.709012021456868,19.013618646566066,1.1470377169056865,0.9418071946003574,0.7765831178870083,0.3809116793445526,1.5157834983253775,1.7717937079494714,15.156863238877994,170.54537848919827,49.57868859787618,189.21122252076003,30.613136507386017,217.16325014666225,5.322794055335285,38.69928906817651,3.2824930951926734,15.603103727453941,10.95414052620407,37.0018522456377,1.727537209583708,2.5817953146388506,1.6022929307131082,3.1153730041849927,1.0380916242566622,1.393281792206367,16.142914058132604,200.06198774654797,59.149319325596835,217.87576271154026,77.50672843239524,498.4682173745415,5.762595338531392,20.612948895879292,4.86113821134002,24.47623559360202,7.793613894172936,15.366749917398458,1.2094167117183365,0.7109505612931416,1.3272338969833102,0.8983813658331091,1.43513564322113,0.719762251642704,22.74438282280914,242.93348994089536,24.111018787730824,98.30749716461305,10.964547922788572,33.67329022449804,4.509138197634246,10.450714626526013,9.338521968111518,26.06345714412201,3.8993209062282705,4.680452767659044,1.0309636997066685,0.6495366504839155,1.049027733643316,0.5390364798529654,1.5098270693532199,0.7580170770667073,15.181309841881113,69.83833389067222,86.97062348925378,558.7111877829478,59.21778516532961,397.17261593870404,5.553181324277289,23.46962415842824,8.086542469410857,50.5516538849079,6.048404574548163,26.01867314477932,2.019273809549853,1.8678775779199384,1.2726469646585135,0.7730131410046293,1.1659096937668934,1.0537722357746082,22.281359735599235,43.8565596135551,37.65065976607898,213.9298210794085,53.600294877674955,259.49728718803226,10.379284195047765,61.38957707680602,8.58258946467776,33.29455300026084,3.3301562364713466,11.187754779212332,1.2356346849821631,0.9285149027209771,1.5996294370429083,1.22730077413615,2.0913621912256253,2.903936042256741,30.439741243508237,190.24254598218687,29.465214534855086,744.7798988304706,24.03492672630578,49.66754416146655,1123.0,1230.1666666666667,9.0,0.0,5.0,0.0,2.0,0.0,1
43,4.407499440522357,15.343811058085496,4.031511567871679,8.979575321978533,6.877798588923371,29.29366799294731,0.9953011705055217,0.9173070647307362,1.4171294508086256,1.5078383989268402,1.191910339296172,0.9797198312823574,35.08797933247464,346.16092529495495,20.72969703339348,136.80229931264324,35.18784455228443,260.004768339761,5.387511106962261,11.422706503229218,6.384399180385199,33.61373669280249,3.0549603172016044,12.160121635020712,1.266696526861388,2.0038350869316166,0.5017303980623318,0.30709810434293927,2.0398169214075264,1.2182317030573124,32.39478437762615,359.7205508949483,27.477750967849385,199.31113911763728,9.216475092675076,26.555693362485734,5.765233892793498,33.67120922724696,7.630947764624249,22.836452031802217,3.9502126868383205,23.833522471303482,0.707590785824255,0.5693489585460078,1.1475763712540146,0.4857373291882695,1.4381535933237553,0.6202262044075613,25.797003921521597,157.98005542021903,108.90077291441358,22.411509940052177,41.54111539036774,75.83416914788462,6.3945938617314315,37.51612165934314,7.414595331658017,15.332608031180875,3.515670549463142,24.603165925844575,0.9571423975150447,0.7059930849318617,0.8062362687215825,0.34653571386005155,1.864658911242958,0.5723088242127299,25.594013371743447,155.02300642415761,46.04756457746522,30.112626507317266,46.39144257474537,29.170119077135816,6.230040144644801,40.374563094903806,1.11029778391677,0.6922670291771823,7.425850625742566,39.895258366091234,0.4172043145157027,0.05762736868471067,1.9448547555395395,1.7778156430982175,0.2684297754500477,0.0372675822719594,37.431673270611725,207.1138066064933,41.42356626652489,23.269129082367908,29.42527280267605,436.93452575986277,6.333665932459403,60.804759335396945,1.567990582821167,3.565656793095627,7.736549565122147,24.720414538058137,0.26746866999103586,0.10966715756312166,1.763357644485048,1.1004889228582344,0.23352982711950354,0.039904714199333564,33.698030503328184,66.42242851655851,14.962853664209035,11.417146661640317,22.305168399264005,276.4694954384972,11.80584378266507,129.20256448340248,2.0167643486119013,4.227870422183754,7.031901333573436,17.304718001403778,0.5801838997305055,0.13359495506514232,2.6161301318048076,3.5172933087370724,0.5510135964790651,0.13832323669438562,35.26476226549996,143.17687695486612,27.987773438130528,22.94943897166282,27.74205342082938,137.34790165373553,1264.0,1230.1666666666667,2.0,0.0,4.0,0.0,1.0,0.0,1
44,3.8562954219504575,21.674721211591464,6.450416577964528,42.222456424146976,8.809637409350104,111.47224942309951,1.7899304375298752,2.021092387384843,1.3851450342715772,0.7602078765878452,0.66927666485325,0.3190325053285329,9.808860925049329,34.51203022014054,28.388674152784112,171.92254214806619,44.05598389806826,64.37705160594268,4.804847325483137,35.237415640653154,6.511777706413476,79.57409886587337,10.84655012288862,89.74025852074601,2.23602780971045,5.679511155918144,1.0005398636476006,1.1238922164497536,2.0182441095860044,1.5535016895385354,9.182555772302564,28.445022975044672,29.96004811594309,144.5545514299271,41.105758980286026,168.03037307030465,5.404116486099141,39.68565606353545,4.444317635364277,14.525083365369499,9.346769953315908,31.232307624108163,1.7648374861575786,1.3597400208928803,1.0715652401751476,1.219770323461198,0.7521285502016852,0.39457077362171644,11.427443425886887,155.19327656960624,30.606572155124883,207.9673586442541,8.156111763774856,9.899700180318948,5.0069246397580764,52.7359791564012,4.448945995435611,79.97982212081828,9.680333220669308,37.47387347230499,1.7390095552291014,6.963856432181251,1.3745766436942846,1.3081438271106773,1.4184659364948835,2.3055604709573525,14.585442103999705,98.33184192752762,30.50125964047495,195.83960501509677,81.43079634737377,161.98957284120436,6.236186194518381,40.59174264885134,9.580262944718038,35.052019090004066,3.861819941519706,12.496063631233392,1.7099027944082195,1.6801515335070847,1.4196166333584654,2.0431252088595446,1.6615507061196846,2.6044077722824137,14.47556406628987,152.6258730671769,21.393897798189446,37.73134537218905,53.01469427692003,137.99742973374626,6.014434510118459,29.14294700969528,8.868436045513665,30.693219861621987,5.759508230808106,31.85421514264385,1.6748219466775902,1.2991297639825048,1.3191345647200634,1.298747913521825,1.3416587370717206,0.7797834254959195,10.628636551882364,67.00981192438437,14.097246473978373,119.81063773161283,47.74822747411807,125.76920683472858,7.535664722277236,46.481222859645904,9.00104435908893,114.90587522128824,5.337160368226776,44.16352480877895,2.265498571621239,1.831731210186174,2.1748490562924174,3.7333959169220474,1.6044505755455534,2.536677492162698,23.29899062376377,181.95850206902952,10.998636790543548,27.984856615703897,32.4670609876144,192.24842081384512,963.0,1230.1666666666667,4.0,0.0,6.0,0.0,2.0,0.0,1
45,10.695965515187948,19.53011697065974,4.211174904468877,8.763152434679661,3.3021127540956843,2.5884597606126616,1.0209395954624003,0.3627873323143555,0.38033334651147976,0.10966770862280957,2.3881622658780786,2.689594221933297,58.68958263554849,55.937800052071346,25.820585531144104,168.86417880741172,19.56139964899741,19.897823577325084,10.78209615837444,20.711262381826028,4.841556713392974,65.12228605088481,4.515209696755922,9.201752622121488,0.9600462099260165,0.8191921165525956,0.6153440425357173,0.533103096560271,1.8841488665991564,3.056974237877546,34.253756448257064,52.43060170388495,10.568756435559061,160.7108491323685,44.672611646415774,7.57712496779586,10.398245165170717,8.9688528049892,2.8563808818955807,4.950782013591931,1.2628581461358108,1.1945254539907753,0.7487100811274953,0.3523131603417394,0.6189035106419531,0.08170840623510572,0.4769071889348513,0.1574506662113865,39.08606496133095,5.0036874494708465,28.112093728435926,4.896501313215385,8.141018905915505,38.972710370526734,9.862693711745838,10.282355646263959,4.623594165833528,19.23632322462417,1.5694995681978454,1.7008196849411787,0.7513599495272621,0.3922460391593611,0.37076322397617395,0.1333848451295932,0.6400684636954049,0.22127416517677884,32.77302059457322,0.9513463651830957,9.720710548179701,22.50999991710939,80.62144407161996,8.269773266942313,9.783025032232615,8.565501507968694,1.2168130606474463,1.4737818214348801,3.1382267822411434,3.934762818866525,0.3341995943953429,0.0707213066969981,0.26215952108585283,0.04326111796066578,0.1626546932586415,0.01006120884286889,31.211765068621673,1.3131999113475188,1.7048150884018334,1.3046237000841971,52.22255385217588,4.74300209378974,10.071295363843934,8.1276673974016,1.058599472392258,0.5535675742816893,2.222118867576615,1.5418803952348576,0.26345214927338123,0.03096589771686086,0.24604557012111594,0.036999234741067914,0.163152289310324,0.017984770226016463,24.275297937314374,12.222202815417194,14.54814205484942,13.072669649746945,27.158917308838898,12.265936820280272,9.639696735981083,6.224966861423405,1.2683437836225615,0.7703553540119974,4.452556490405532,2.7079986475204607,0.19014509919571906,0.015004452555616008,0.947671134117221,0.3196227327326708,0.2368456359663093,0.035759078253507916,23.322912168896888,10.890125998656641,6.740427181001537,12.845439352074012,23.54930079278867,20.26616728358226,1658.0,1230.1666666666667,2.0,0.0,2.0,0.0,1.0,0.0,0
46,8.421658113968274,0.0672682937437762,4.26817392711797,0.3157875363503346,2.77534617668341,0.0429098749433241,0.20080999953071932,0.010173912150661399,0.0489109336932032,0.0010079712044320829,0.20635554486739427,0.02090073842870555,36.05485938206192,0.17976113879929295,18.00484129220001,1.389470321543625,39.262418069130135,1.0666948385741142,8.581887363402311,0.056400042721646344,4.653225719436141,0.2860146195939936,1.4409690794865948,0.10365399698571162,0.10390408238018901,0.010970397492358388,0.1065119752609402,0.006364791027304255,0.23734352893719435,0.0487580042236915,6.054709190179493,0.39135741650767836,11.70362715287642,3.047139626852363,24.026530116057593,0.20798139757915635,3.07579922084966,4.371409961897641,9.392731910894724,1.108638824488203,0.56965470977497,0.11396562409706248,0.20977245377038012,0.033990963272913545,0.15012278444757146,0.01727570783402813,0.7463344142672198,0.23744801223930154,8.645245576693007,43.47828898324148,90.77219939428913,36.73542887337199,54.166852147126,5.901943904516107,3.343976383613161,4.533641541915576,9.24135048527363,1.0481076509339866,1.730182859276937,0.4805650143667094,0.21740215656170545,0.02080143971106777,0.3265106121370615,0.012101727247722517,0.6880618034869679,0.19886766936110153,11.431744419099871,34.386529812500235,22.0044409933169,40.58762327587276,16.506403387085467,2.232196503171252,9.257468661000907,0.5328955583058916,0.2711732228448199,0.0311657235303382,4.599153837881798,3.0586931397962105,0.1838824466860748,0.013160552051912626,0.556768189161277,0.11019254434738988,0.044500743761917955,0.001483210396911134,37.57378002828803,25.083440183134833,63.065673071490835,2.701645639633749,62.41889323084808,43.21329479779747,9.73712316623404,0.5541428085779241,0.4682482058905866,0.04367216863457897,3.848159793487265,2.807251828540271,0.1125490328437487,0.005142974986504776,0.5146735288618394,0.055818293757056756,0.0753753055246645,0.0021067214761538266,32.738086984177265,14.479866915088417,36.43084292766476,15.314937530156,44.77113591343903,25.430963053211244,10.650457334912513,0.8481149802063961,0.7819904279548767,0.1925834163557835,1.7460069977793813,0.8524607326681903,0.07644624765702593,0.0019683256662998815,0.7656012411452522,0.05173901319782671,0.1592450072788749,0.013790489850120135,36.59017725227293,10.669770450312091,48.38844756449549,24.050385985785283,21.882540509720478,41.48798708485828,995.0,1230.1666666666667,4.0,0.0,7.0,0.0,1.0,0.0,0
47,9.697576979960292,4.605934635490886E-5,0.2997977775483092,9.353987653711268E-5,1.5330033193935046,7.922013214027854E-5,0.22091596801418903,4.624532159139169E-6,0.05557748764630192,2.031322329167018E-5,0.014559247915840838,1.3302448626125856E-5,33.34352351417226,0.04725365681712732,19.130869179717767,0.07066332470660192,16.27921530037872,0.055417691715835736,9.698059302716215,5.355857610630194E-5,0.7675648784834491,7.469457856170102E-5,1.1312674766729687,5.5082387888106006E-5,0.0391862643189913,3.739722705971925E-5,0.008100859518770239,2.2985625373631577E-5,0.020356239643225,2.2158053291562068E-5,19.37833801773954,0.08537454754317732,18.73878050244544,0.07025945273285514,13.657657252855538,0.05876561298631708,9.665606088874753,7.878620859971251E-5,0.6886280858812254,3.756474183268625E-4,1.4060444289987737,1.5430321113877913E-4,0.03748028108095827,3.360994776761314E-5,0.01837228091572188,3.838143370938108E-5,0.019537644570477863,1.9285051777463542E-4,36.010889195213636,0.5740108524056375,22.545683711028296,1.5032935601440058,50.71763673892691,0.8351870553624653,9.568426274071054,1.2831826891459034E-4,1.0378960637021657,3.6905980900912605E-4,1.241544955032916,1.162148739248171E-4,0.19748395927681411,5.1535964271255624E-5,0.1598470664221393,3.215088452837915E-5,0.015613413233890136,1.7542412684718803E-4,30.545376832820168,0.41166965285950746,49.99095112824243,0.9365442611283902,48.66002963988249,0.7729625552784264,9.655150200709823,1.2846101415087152E-4,0.2860955953105422,1.1383295065699062E-4,1.230693429954781,0.0011829440010520872,0.1894119663918314,4.066073330721406E-5,0.08206334696266769,2.2782557956808026E-4,0.02059196693965134,1.949498775775868E-4,35.372165238561706,0.31618334323604286,40.16747996432722,1.1225689348570578,63.516081281929964,0.5123938732480737,9.710939304887756,5.983890138820121E-4,0.023564371785239416,2.632134769909682E-4,0.6960165471084847,0.0024331030458605717,0.1809242478579529,3.6265329849380026E-4,0.2043868518811612,2.2815343952590936E-4,0.03156746291720947,4.307560564921656E-4,32.55549315775721,8.960648580824962,11.40856458332913,11.7423490907183,36.96143894353189,11.758520817116988,9.636578197321615,0.0019449070663276483,0.13689614857031293,0.002140925965178842,2.079538106918335,5.435712300983985E-4,0.13948885942539893,1.5151457976599324E-4,1.0976756436765687,1.614479990102853E-4,0.016562099094706594,2.0475927945139252E-4,41.17616164782816,12.875646223855282,30.059050552115952,16.647047147265532,19.709928835719086,8.950186735781184,1230.0,1230.1666666666667,1.0,0.0,8.0,0.0,1.0,0.0,0
