Time,r.ankle Acceleration X (m/s^2),r.ankle Acceleration Y (m/s^2),r.ankle Acceleration Z (m/s^2),r.ankle Angular Velocity X (rad/s),r.ankle Angular Velocity Y (rad/s),r.ankle Angular Velocity Z (rad/s),r.ankle Magnetic Field X (uT),r.ankle Magnetic Field Y (uT),r.ankle Magnetic Field Z (uT),l.ankle Acceleration X (m/s^2),l.ankle Acceleration Y (m/s^2),l.ankle Acceleration Z (m/s^2),l.ankle Angular Velocity X (rad/s),l.ankle Angular Velocity Y (rad/s),l.ankle Angular Velocity Z (rad/s),l.ankle Magnetic Field X (uT),l.ankle Magnetic Field Y (uT),l.ankle Magnetic Field Z (uT),r.thigh Acceleration X (m/s^2),r.thigh Acceleration Y (m/s^2),r.thigh Acceleration Z (m/s^2),r.thigh Angular Velocity X (rad/s),r.thigh Angular Velocity Y (rad/s),r.thigh Angular Velocity Z (rad/s),r.thigh Magnetic Field X (uT),r.thigh Magnetic Field Y (uT),r.thigh Magnetic Field Z (uT),l.thigh Acceleration X (m/s^2),l.thigh Acceleration Y (m/s^2),l.thigh Acceleration Z (m/s^2),l.thigh Angular Velocity X (rad/s),l.thigh Angular Velocity Y (rad/s),l.thigh Angular Velocity Z (rad/s),l.thigh Magnetic Field X (uT),l.thigh Magnetic Field Y (uT),l.thigh Magnetic Field Z (uT),head Acceleration X (m/s^2),head Acceleration Y (m/s^2),head Acceleration Z (m/s^2),head Angular Velocity X (rad/s),head Angular Velocity Y (rad/s),head Angular Velocity Z (rad/s),head Magnetic Field X (uT),head Magnetic Field Y (uT),head Magnetic Field Z (uT),sternum Acceleration X (m/s^2),sternum Acceleration Y (m/s^2),sternum Acceleration Z (m/s^2),sternum Angular Velocity X (rad/s),sternum Angular Velocity Y (rad/s),sternum Angular Velocity Z (rad/s),sternum Magnetic Field X (uT),sternum Magnetic Field Y (uT),sternum Magnetic Field Z (uT),waist Acceleration X (m/s^2),waist Acceleration Y (m/s^2),waist Acceleration Z (m/s^2),waist Angular Velocity X (rad/s),waist Angular Velocity Y (rad/s),waist Angular Velocity Z (rad/s),waist Magnetic Field X (uT),waist Magnetic Field Y (uT),waist Magnetic Field Z (uT)
1305397830117180,-9.504052,1.772482,-1.889869,0.266558,0.036095,-0.022827,47.846665,11.699444,13.847605,-9.551761,-0.875805,-1.807275,0.022685,0.01027,-0.018982,46.067693,-30.123552,12.614152,-9.634838,-0.157505,-1.712663,0.060922,-0.002457,0.017835,35.933846,-2.649907,-48.494932,-9.515285,-1.316283,-1.414214,0.235571,0.223295,-0.020464,37.220998,-60.019203,-30.919841,-8.583519,-0.018173,-4.630591,0.228376,0.073936,-0.051172,19.059547,-49.790816,-82.469818,-9.590804,0.296416,-1.364669,-0.034553,0.207952,0.022569,26.601477,-23.356794,-52.385517,-8.810233,0.170874,4.449964,0.1745,1.214005,0.055283,33.554307,-20.632661,-15.235928
1305397830125000,-9.495048,1.772206,-1.909999,0.276728,0.035152,-0.022662,47.844483,11.699647,13.846913,-9.569691,-0.866706,-1.80729,0.024388,0.022522,-0.01247,45.571985,-30.600466,12.638141,-9.637528,-0.176201,-1.719741,0.054993,0.003176,-0.030656,35.933846,-2.649907,-48.494932,-9.478306,-1.257549,-1.381231,0.242695,0.223942,0.009249,35.629743,-60.040412,-30.970801,-8.585767,-0.013589,-4.618932,0.237158,0.067942,0.027601,19.00424,-48.973417,-83.875203,-9.586041,0.286802,-1.364687,-0.038647,0.212282,0.058245,29.387551,-25.026065,-45.371274,-8.802871,0.19178,4.428775,0.15,1.206084,-0.010546,33.554307,-20.632661,-15.235928
1305397830132810,-9.492852,1.77876,-1.934515,0.283248,0.040432,-0.019494,47.84348,12.189204,13.825173,-9.571914,-0.86669,-1.79594,0.022785,0.016319,-0.00774,45.571985,-30.600466,12.638141,-9.639836,-0.173922,-1.726793,0.062659,-0.005472,-0.000353,35.902288,-3.665667,-47.678198,-9.491499,-1.192776,-1.381198,0.238889,0.21675,-0.02653,37.175721,-61.06395,-31.639438,-8.581085,-0.01351,-4.607268,0.231952,0.068484,-0.014778,17.77688,-48.110018,-83.193853,-9.588435,0.284417,-1.388103,-0.027779,0.209747,0.016817,24.664726,-24.971526,-47.960878,-8.781331,0.222144,4.419341,0.162491,1.209009,0.0134,40.965462,-17.458698,-15.141334
1305397830140620,-9.501731,1.767842,-1.947895,0.288308,0.037168,-0.022542,47.851117,11.693677,13.336827,-9.560725,-0.871259,-1.805012,0.021155,0.016386,-0.014128,46.067693,-30.123552,12.614152,-9.619202,-0.194542,-1.747935,0.061032,-0.007045,-0.000337,35.909148,-3.683754,-48.517224,-9.505289,-1.16052,-1.376461,0.237314,0.216833,-0.020537,36.424151,-58.992329,-31.928699,-8.571633,-0.008725,-4.574613,0.241786,0.055302,-0.01469,20.310512,-48.09868,-82.387014,-9.583741,0.282122,-1.383419,-0.037436,0.202639,0.034252,24.269803,-20.098149,-47.318151,-8.790505,0.235878,4.426418,0.145835,1.21636,0.025354,43.684634,-11.885037,-19.587274
1305397830148430,-9.487915,1.75219,-1.954619,0.299681,0.036188,-0.016136,47.84348,12.189204,13.825173,-9.572113,-0.853408,-1.81639,0.024297,0.010235,-0.015788,46.067693,-30.123552,12.614152,-9.63823,-0.21121,-1.759738,0.06438,0.004156,-0.000401,35.965404,-1.634148,-49.311665,-9.521426,-1.125986,-1.378793,0.213681,0.217763,-0.038024,37.219778,-58.981725,-31.903219,-8.557981,-0.029309,-4.579262,0.240245,0.063331,0.003399,18.405832,-49.804722,-83.205132,-9.585757,0.305712,-1.378748,-0.035748,0.201522,0.063964,27.08728,-27.912296,-50.611922,-8.8072,0.217145,4.445264,0.149729,1.198369,-0.004617,38.566959,-21.045858,-22.617481
1305397830156250,-9.485509,1.741144,-1.939031,0.296575,0.035796,-0.022434,47.84348,12.189204,13.825173,-9.57228,-0.842338,-1.834567,0.022658,0.004095,-0.017446,46.070591,-30.130903,12.129821,-9.645577,-0.229976,-1.755073,0.053385,0.007964,-0.024603,35.152515,-1.617062,-47.62708,-9.52609,-1.119106,-1.381143,0.21577,0.213358,-0.014224,38.789005,-60.001629,-31.720369,-8.558507,-0.059414,-4.560592,0.236852,0.070106,-0.008778,19.632036,-49.821197,-83.868922,-9.609135,0.324257,-1.367042,-0.035611,0.210056,0.040426,36.16941,-29.292873,-55.098001,-8.788901,0.187368,4.44288,0.146654,1.188411,-0.016632,33.739663,-18.075446,-19.866749
1305397830164060,-9.492435,1.747907,-1.905574,0.298227,0.034209,-0.022402,47.851117,11.693677,13.336827,-9.581326,-0.835632,-1.827768,0.022705,0.000982,-0.007851,46.060443,-30.60573,12.639795,-9.619925,-0.231563,-1.738628,0.054655,0.002421,0.005727,35.141536,-2.687082,-49.327423,-9.537988,-1.11468,-1.381131,0.209966,0.19455,0.027514,38.016625,-60.008599,-30.894361,-8.558762,-0.0733,-4.572249,0.238343,0.086717,-0.008997,19.660268,-50.653359,-83.175009,-9.632864,0.319173,-1.352983,-0.042028,0.212528,0.010651,24.498667,-28.679712,-57.947528,-8.784527,0.166631,4.445223,0.138317,1.178525,-0.016709,40.815333,-26.84248,-23.122671
1305397830171870,-9.487982,1.752265,-1.896656,0.298276,0.032496,-0.023954,48.326171,12.186022,13.834012,-9.587676,-0.857602,-1.841358,0.024336,0.014916,-0.015698,46.066885,-30.12296,12.613968,-9.594549,-0.252051,-1.72216,0.053419,0.006168,-0.030659,35.21563,0.414457,-49.260546,-9.519231,-1.137559,-1.390584,0.193074,0.197315,0.01589,37.198969,-61.060316,-30.787951,-8.579762,-0.071359,-4.574593,0.243048,0.088675,-0.027235,19.05839,-48.943892,-82.452257,-9.644241,0.349703,-1.334262,-0.03719,0.20579,0.069987,31.308601,-20.338896,-44.641906,-8.764014,0.127639,4.435772,0.139979,1.19296,-0.010646,38.902444,-9.104863,-19.266964
1305397830179680,-9.487355,1.708152,-1.883338,0.301322,0.026397,-0.016039,47.84348,12.189204,13.825173,-9.572297,-0.844583,-1.839104,0.021157,0.013353,-0.012518,46.063341,-30.613081,12.155471,-9.594878,-0.272988,-1.691634,0.058074,-0.00369,-0.024584,33.554176,-1.655238,-47.614011,-9.512255,-1.149041,-1.388237,0.197711,0.196959,-0.008057,37.152474,-61.067585,-32.490926,-8.593672,-0.064659,-4.588598,0.248132,0.067064,-0.020945,18.430594,-48.096111,-82.458538,-9.672639,0.349259,-1.292102,-0.039039,0.206795,0.004622,27.071578,-24.839858,-45.457915,-8.755043,0.100033,4.426338,0.144991,1.186749,-0.016646,38.712149,-14.980242,-19.727011
1305397830187500,-9.504699,1.655465,-1.878928,0.302822,0.025024,-0.011313,48.327175,11.696466,13.855753,-9.57233,-0.842374,-1.839107,0.01787,0.002644,-0.019014,46.069783,-30.13031,12.129644,-9.61617,-0.287345,-1.684636,0.048167,-0.002262,0.005784,34.310809,-3.72193,-48.504156,-9.517604,-1.179322,-1.383527,0.196261,0.202125,0.009901,39.585851,-61.028503,-30.711511,-8.579688,-0.066723,-4.590921,0.246475,0.065473,-0.026971,19.05839,-48.943892,-82.452257,-9.66781,0.354106,-1.388118,-0.039368,0.192418,0.02206,29.509834,-30.853066,-53.262966,-8.734478,0.065668,4.431012,0.153735,1.193149,0.025237,35.992976,-20.553903,-15.281071
1305397830195310,-9.511916,1.684258,-1.872194,0.304484,0.03164,-0.011345,47.84348,12.189204,13.825173,-9.572364,-0.840155,-1.845921,0.022651,0.004189,-0.020597,46.069783,-30.13031,12.129644,-9.604189,-0.273125,-1.665797,0.049867,-0.008499,-0.01239,36.757714,-1.596973,-48.479173,-9.503685,-1.204611,-1.390619,0.201099,0.200364,-0.002126,36.380094,-61.074555,-31.664918,-8.561103,-0.073339,-4.579247,0.24326,0.080126,-0.008953,19.05839,-48.943892,-82.452257,-9.660782,0.34949,-1.395143,-0.050586,0.18081,0.074991,29.00833,-23.225126,-49.882554,-8.722896,0.056593,4.426288,0.140313,1.205403,-0.016548,41.200861,-11.773557,-17.111709
1305397830203120,-9.50084,1.699559,-1.856582,0.292799,0.026485,-0.00831,48.327175,11.696466,13.855753,-9.570267,-0.831373,-1.832312,0.017924,0.010328,-0.01734,45.577625,-30.117097,12.612129,-9.620365,-0.264079,-1.649362,0.051401,-0.005477,-0.000285,35.933846,-2.649907,-48.494932,-9.527947,-1.221308,-1.390602,0.206081,0.202064,-0.0022,37.972568,-62.090825,-30.63058,-8.544573,-0.063787,-4.579241,0.236768,0.068615,-0.020876,19.059547,-49.790816,-82.469818,-9.642151,0.33314,-1.226532,-0.035028,0.167215,0.086841,34.035198,-28.470917,-50.351999,-8.706615,0.047584,4.409788,0.144226,1.201762,-0.04046,45.928071,-20.999823,-25.183332
1305397830210930,-9.464032,1.659305,-1.863364,0.281428,0.029106,-0.014728,47.84348,12.189204,13.825173,-9.581228,-0.842252,-1.832298,0.013125,0.008815,-0.018951,46.069783,-30.13031,12.129644,-9.591625,-0.226283,-1.651617,0.050109,-0.006563,-0.036651,35.127817,-2.650908,-47.649372,-9.552034,-1.228715,-1.397653,0.209177,0.206765,-0.014155,37.926073,-62.098093,-32.333555,-8.53744,-0.056713,-4.586237,0.230206,0.071956,-0.026926,19.059547,-49.790816,-82.469818,-9.602296,0.305504,-1.448996,-0.047553,0.176596,0.069003,26.601477,-23.356794,-52.385517,-8.678455,0.050309,4.397985,0.148713,1.207244,-0.022493,36.083185,-20.934378,-20.141915
1305397830218750,-9.469151,1.699103,-1.85216,0.289593,0.026235,-0.011478,47.844483,11.699647,13.846913,-9.572361,-0.840178,-1.83003,0.013089,0.002656,-0.019013,45.577625,-30.117097,12.612129,-9.572148,-0.18399,-1.649183,0.053472,-0.012755,-0.060899,36.782412,-0.563126,-48.456881,-9.532231,-1.193523,-1.390589,0.200696,0.203174,-0.025965,37.970129,-60.015868,-32.597336,-8.544413,-0.054523,-4.588574,0.241619,0.070321,-0.020935,19.031315,-48.958654,-83.16373,-9.578707,0.303433,-1.338938,-0.041418,0.173429,0.039342,24.392086,-25.925149,-55.209843,-8.772254,0.044303,4.419282,0.149059,1.19903,0.019285,40.820271,-23.524315,-18.031803
1305397830226560,-9.480954,1.734537,-1.878853,0.289489,0.024737,-0.008335,48.327175,11.696466,13.855753,-9.585348,-0.864303,-1.811836,0.01797,0.01336,-0.012517,46.060443,-30.60573,12.639795,-9.581264,-0.172486,-1.632732,0.057794,-0.013599,-0.006355,35.134677,-2.668995,-48.488397,-9.522772,-1.200316,-1.3906,0.212218,0.208114,-0.032096,38.766976,-61.042742,-31.588478,-8.539667,-0.049801,-4.609563,0.244615,0.077327,-0.045282,19.085465,-48.929129,-81.740784,-9.59228,0.34573,-1.299147,-0.037817,0.192942,0.010224,26.585776,-20.284356,-47.23151,-8.854191,0.047716,4.431152,0.140385,1.202249,0.037209,38.571897,-17.727694,-17.526613
1305397830234370,-9.483542,1.756639,-1.876592,0.279825,0.028982,-0.016312,47.844483,11.699647,13.846913,-9.58731,-0.881944,-1.809541,0.022742,0.007142,-0.007789,46.549703,-30.611593,12.641634,-9.60688,-0.163672,-1.665667,0.05273,-0.005921,0.030023,35.933846,-2.649907,-48.494932,-9.534802,-1.202856,-1.385876,0.217239,0.20657,-0.032192,38.812252,-59.997995,-30.868881,-8.556155,-0.057038,-4.60957,0.24649,0.081816,-0.008999,19.712104,-48.929985,-81.716943,-9.611409,0.331283,-1.317869,-0.044352,0.186646,0.009922,24.589547,-28.361838,-55.531206,-8.816558,0.057516,4.419339,0.152824,1.209904,0.007408,35.937995,-26.999995,-23.032385
1305397830242180,-9.503864,1.754706,-1.894406,0.296363,0.027877,-0.016109,47.84348,12.189204,13.825173,-9.581159,-0.846705,-1.807321,0.019536,0.007181,-0.010982,46.054002,-31.088501,12.665622,-9.627795,-0.152457,-1.710342,0.055416,-0.002802,-0.085202,36.739875,-2.648906,-49.340491,-9.536938,-1.188966,-1.392941,0.224546,0.207435,0.009451,37.198969,-61.060316,-30.787951,-8.56322,-0.057091,-4.597916,0.240146,0.088291,-0.002972,19.05839,-48.943892,-82.452257,-9.583327,0.310461,-1.357675,-0.033217,0.187028,0.010165,24.573846,-25.2894,-50.377199,-8.845055,0.031671,4.426429,0.143096,1.193297,-0.004662,40.770228,-26.652242,-20.692249
1305397830250000,-9.49895,1.728161,-1.894446,0.29616,0.028162,-0.009849,48.326171,12.186022,13.834012,-9.572586,-0.824749,-1.807351,0.021148,0.010257,-0.010952,46.066885,-30.12296,12.613968,-9.644214,-0.155088,-1.712723,0.052842,-0.001007,0.02394,35.166234,-1.653236,-49.305131,-9.508056,-1.181471,-1.388251,0.223977,0.216624,-0.020309,38.039873,-60.004965,-30.042874,-8.565524,-0.054812,-4.611911,0.243344,0.081852,-0.015034,19.084308,-48.082205,-81.723224,-9.578457,0.319981,-1.35534,-0.039506,0.183884,0.045598,28.810868,-20.788438,-49.56119,-8.91132,0.003191,4.445437,0.152464,1.186759,0.007272,43.539444,-17.950654,-22.477743
1305397830257810,-9.499218,1.745825,-1.885505,0.301533,0.032675,-0.022351,47.850114,12.183234,13.315086,-9.583253,-0.855508,-1.807308,0.02276,0.013333,-0.010921,46.549703,-30.611593,12.641634,-9.653832,-0.169247,-1.717457,0.043325,-0.003761,0.005819,36.739875,-2.648906,-49.340491,-9.50121,-1.19992,-1.383549,0.230736,0.216837,-0.014458,37.220998,-60.019203,-30.919841,-8.558665,-0.063955,-4.593246,0.236738,0.078723,-0.03312,18.430594,-48.096111,-82.458538,-9.590291,0.319793,-1.331919,-0.047145,0.20021,0.01022,34.035198,-28.470917,-50.351999,-8.909094,-0.003707,4.457202,0.154044,1.182116,0.007249,33.734725,-21.393611,-24.957616
1305397830265620,-9.483666,1.765459,-1.881039,0.304695,0.037918,-0.017657,48.332805,12.180052,13.323925,-9.587707,-0.855403,-1.834551,0.024371,0.010186,-0.004564,46.060443,-30.60573,12.639795,-9.652316,-0.213501,-1.72926,0.042896,-0.017054,0.036189,33.543197,-2.725258,-49.314355,-9.505849,-1.190712,-1.367042,0.225939,0.207135,-0.008473,37.94932,-62.094459,-31.482068,-8.556464,-0.07085,-4.616565,0.23679,0.072085,-0.033037,19.059547,-49.790816,-82.469818,-9.613872,0.324174,-1.343623,-0.040406,0.208138,0.046217,29.09921,-22.907252,-47.466232,-8.87672,-0.030962,4.466571,0.164696,1.16588,-0.028671,36.27348,-15.058999,-19.681868
1305397830273430,-9.494402,1.723732,-1.856558,0.294719,0.036027,-0.016193,48.332805,12.180052,13.323925,-9.596675,-0.850834,-1.848179,0.022705,0.005649,-0.012596,46.054002,-31.088501,12.665622,-9.614969,-0.217477,-1.724502,0.049959,-0.014698,-0.030555,35.916008,-3.701841,-49.356249,-9.550984,-1.170644,-1.38585,0.234347,0.208996,-0.002639,38.8355,-59.994361,-30.017394,-8.56806,-0.066435,-4.597915,0.239951,0.088627,-0.02721,17.833343,-49.77434,-81.806028,-9.632976,0.312072,-1.329561,-0.03277,0.199999,0.028339,26.206555,-18.483417,-51.74279,-8.841709,-0.039691,4.459465,0.160596,1.155337,-0.004842,40.770228,-26.652242,-20.692249
1305397830281250,-9.507741,1.706292,-1.845419,0.297968,0.029643,-0.014538,47.84348,12.189204,13.825173,-9.607799,-0.850672,-1.845911,0.024336,0.013361,-0.014116,46.063341,-30.613081,12.155471,-9.596469,-0.228791,-1.724485,0.056465,-0.013155,-0.036663,35.902288,-3.665667,-47.678198,-9.55048,-1.142771,-1.381128,0.220843,0.215167,-0.008333,38.790224,-61.039108,-30.736991,-8.577299,-0.059648,-4.618913,0.243376,0.089981,-0.003018,19.738022,-48.068299,-80.98791,-9.63071,0.305029,-1.348292,-0.029589,0.200108,0.028408,26.494896,-20.602231,-49.647831,-8.79472,-0.02975,4.459411,0.174217,1.153953,-0.022743,38.752315,-18.488644,-27.248301
1305397830289060,-9.496889,1.739208,-1.858765,0.284797,0.037346,-0.01632,47.850114,12.183234,13.315086,-9.603382,-0.848526,-1.848184,0.02276,0.014889,-0.012503,46.069783,-30.13031,12.129644,-9.61313,-0.245396,-1.719833,0.064262,-0.015278,-0.01245,35.134677,-2.668995,-48.488397,-9.564569,-1.126772,-1.374039,0.2261,0.217193,0.009488,38.015405,-58.971121,-31.877739,-8.581691,-0.043522,-4.628251,0.241824,0.075114,-0.008879,19.05839,-48.943892,-82.452257,-9.642685,0.295387,-1.320182,-0.032778,0.196023,0.051999,26.692357,-23.038919,-49.969195,-8.742912,-0.010491,4.461707,0.169383,1.152117,0.031011,38.902444,-9.104863,-19.266964
1305397830296870,-9.500935,1.708347,-1.885552,0.275031,0.041733,-0.021167,47.850114,12.183234,13.315086,-9.592354,-0.842078,-1.839111,0.019554,0.014928,-0.015696,45.571183,-30.599867,12.637957,-9.606174,-0.249912,-1.705725,0.061291,0.005737,-0.012515,35.141536,-2.687082,-49.327423,-9.578819,-1.120067,-1.37638,0.219343,0.208761,-0.002384,37.993377,-60.012234,-31.745849,-8.588459,-0.029755,-4.632924,0.241651,0.078686,-0.027099,18.457669,-48.081349,-81.747065,-9.652359,0.281068,-1.315488,-0.026196,0.205826,0.040512,35.667906,-21.664934,-51.717589,-8.709773,0.013113,4.461673,0.177607,1.149231,-0.028738,38.426707,-23.79331,-20.417082
1305397830304680,-9.505247,1.695148,-1.905628,0.270019,0.041644,-0.019659,47.850114,12.183234,13.315086,-9.590488,-0.817817,-1.836875,0.021103,0.010336,-0.018937,46.060443,-30.60573,12.639795,-9.603859,-0.249887,-1.719822,0.058501,-0.009402,-0.079131,35.933846,-2.649907,-48.494932,-9.563668,-1.094489,-1.402305,0.210926,0.20769,-0.008212,38.812252,-59.997995,-30.868881,-8.583684,-0.025052,-4.602604,0.2531,0.078626,-0.015069,19.005397,-49.820341,-83.892763,-9.657255,0.269203,-1.350607,-0.021479,0.208681,0.010979,31.521764,-25.848022,-50.117276,-8.686324,0.015774,4.471061,0.163944,1.147464,-0.010855,38.566959,-21.045858,-22.617481
1305397830312500,-9.503335,1.721549,-1.936808,0.27002,0.036733,-0.019619,47.850047,12.183239,13.315066,-9.597097,-0.822142,-1.83233,0.019464,0.005752,-0.022178,46.060443,-30.60573,12.639795,-9.615298,-0.238414,-1.693976,0.058147,-0.0115,-0.042743,35.145655,-1.598975,-46.788054,-9.546737,-1.084888,-1.385818,0.209297,0.20442,-0.008206,37.970129,-60.015868,-32.597336,-8.569565,-0.020179,-4.58394,0.235334,0.081606,-0.002851,19.657954,-48.959511,-83.139889,-9.652347,0.278667,-1.343612,-0.01346,0.20716,0.017048,23.815403,-21.687522,-59.399759,-8.678971,0.039,4.485182,0.160784,1.156748,-0.010809,36.083185,-20.934378,-20.141915
1305397830320310,-9.494604,1.743485,-1.93456,0.276527,0.030526,-0.016362,48.332738,12.180058,13.323905,-9.597291,-0.808906,-1.820998,0.013153,0.016546,-0.022068,46.069783,-30.13031,12.129644,-9.626944,-0.233992,-1.715141,0.075703,-0.013685,-0.030713,35.177213,-0.583215,-47.604787,-9.573191,-1.090012,-1.378724,0.20054,0.208721,-0.031892,38.812252,-59.997995,-30.868881,-8.560166,-0.017701,-4.572274,0.236995,0.076643,-0.002801,20.257519,-48.975129,-83.82752,-9.64278,0.285894,-1.341277,-0.01989,0.203668,0.022763,31.810105,-27.966835,-48.022318,-8.683676,0.038935,4.501666,0.168243,1.151535,0.013079,36.268541,-18.377164,-24.772736
1305397830328120,-9.49242,1.747883,-1.921181,0.28826,0.03397,-0.02095,47.850047,12.183239,13.315066,-9.590419,-0.822271,-1.811897,0.009992,0.019618,-0.020439,45.574081,-30.607218,12.153632,-9.622333,-0.236255,-1.729237,0.07221,-0.009266,0.005668,35.141536,-2.687082,-49.327423,-9.569047,-1.124761,-1.364596,0.195815,0.20075,-0.019931,37.993377,-60.012234,-31.745849,-8.574314,-0.024898,-4.567615,0.235347,0.079946,-0.00283,19.662581,-52.347207,-83.21013,-9.63318,0.295482,-1.334259,-0.016807,0.194775,0.058241,31.324302,-23.411333,-49.795913,-8.653211,0.037065,4.463965,0.172521,1.15403,0.037004,41.241027,-15.281959,-24.632998
1305397830335930,-9.49688,1.743533,-1.923411,0.296419,0.026176,-0.01766,47.843414,12.189209,13.825152,-9.587931,-0.83998,-1.807331,0.019591,0.022643,-0.017216,46.069783,-30.13031,12.129644,-9.60376,-0.242916,-1.736265,0.067555,0.000592,-0.000406,35.940706,-2.667994,-49.333957,-9.533327,-1.135712,-1.345775,0.192245,0.197128,-0.037792,37.971349,-61.053346,-31.613958,-8.579027,-0.0273,-4.560619,0.233481,0.080351,-0.033115,19.033628,-50.652502,-83.198851,-9.62121,0.305113,-1.343635,-0.026237,0.201227,0.04039,26.601477,-23.356794,-52.385517,-8.685865,0.048144,4.487547,0.175461,1.162415,-0.004766,36.223437,-18.186926,-22.342314
1305397830343750,-9.503929,1.761284,-1.92338,0.298083,0.034434,-0.017706,47.850047,12.183239,13.315066,-9.585641,-0.844434,-1.805055,0.016403,0.016428,-0.010889,45.580523,-30.124447,12.127805,-9.622242,-0.22929,-1.75038,0.059888,0.004489,-0.036754,35.958544,-1.616061,-48.472639,-9.524296,-1.165731,-1.341079,0.198234,0.191804,0.021731,37.243026,-58.978091,-31.051732,-8.579189,-0.036562,-4.555951,0.233973,0.072956,0.021504,19.686186,-49.791672,-82.445976,-9.611817,0.300531,-1.348319,-0.023047,0.205313,0.016799,26.692357,-23.038919,-49.969195,-8.709739,0.020063,4.51817,0.175418,1.172036,0.001265,38.47675,-20.665383,-17.756636
1305397830351560,-9.503437,1.728174,-1.932341,0.301393,0.036182,-0.017681,47.850047,12.183239,13.315066,-9.57914,-0.851399,-1.802773,0.019527,0.004541,-0.020353,45.569626,-30.603892,12.152646,-9.631489,-0.22969,-1.724323,0.063198,-0.001511,-0.054939,35.965404,-1.634148,-49.311665,-9.510336,-1.188696,-1.345813,0.180779,0.187322,-0.031694,38.016625,-60.008599,-30.894361,-8.595677,-0.0438,-4.553626,0.239932,0.078838,-0.039205,19.032472,-49.805578,-83.18129,-9.592854,0.303181,-1.360034,-0.032513,0.204047,0.040333,31.521764,-25.848022,-50.117276,-8.716938,0.008399,4.518175,0.164026,1.166541,-0.004769,38.617001,-17.917931,-19.957035
1305397830359370,-9.514742,1.726153,-1.916725,0.318032,0.034935,-0.020608,47.843414,12.189209,13.825152,-9.572466,-0.851491,-1.807312,0.019518,0.004557,-0.02195,46.05885,-30.609754,12.154485,-9.647828,-0.227662,-1.729048,0.059909,0.001623,-0.042805,36.750854,-1.578886,-47.640148,-9.517984,-1.21438,-1.355242,0.179477,0.18773,-0.007805,38.790224,-61.039108,-30.736991,-8.586374,-0.045943,-4.567613,0.231843,0.088549,-0.027146,19.005397,-49.820341,-83.892763,-9.597691,0.296022,-1.360029,-0.029578,0.201005,0.004667,26.601477,-23.356794,-52.385517,-8.702913,0.006295,4.515804,0.168442,1.162404,-0.046608,38.381602,-23.603073,-17.98666
1305397830367180,-9.508065,1.732694,-1.901119,0.319426,0.030422,-0.012725,47.856681,12.177269,12.80498,-9.570405,-0.840481,-1.807327,0.022796,0.01217,-0.013888,46.062393,-30.119668,12.612947,-9.661713,-0.218609,-1.740812,0.058023,0.006005,-0.006434,35.965404,-1.634148,-49.311665,-9.501699,-1.241951,-1.374123,0.184387,0.1877,-0.013855,37.19775,-60.022838,-31.771329,-8.574857,-0.054991,-4.579265,0.232016,0.084978,-0.008926,18.432907,-49.789959,-82.493659,-9.593169,0.281919,-1.364706,-0.031177,0.196974,0.028292,26.404016,-20.920105,-52.064153,-8.679761,-0.011853,4.515771,0.17432,1.174606,-0.016648,36.223437,-18.186926,-22.342314
1305397830375000,-9.505329,1.699575,-1.892248,0.324279,0.024162,-0.009487,48.327108,11.696472,13.855732,-9.574696,-0.851419,-1.834554,0.021193,0.007522,-0.010739,45.576067,-30.121156,12.126821,-9.63816,-0.211167,-1.719611,0.049684,-0.010079,0.005806,35.926986,-2.63182,-47.655906,-9.497075,-1.251155,-1.37413,0.189313,0.194266,-0.013896,38.834281,-58.956882,-31.000772,-8.591219,-0.055285,-4.574609,0.234975,0.090408,-0.039311,18.459982,-49.775197,-81.782186,-9.597866,0.284209,-1.360022,-0.02945,0.195388,0.069875,28.73569,-24.17875,-57.131519,-8.681839,0.006609,4.52284,0.184719,1.177778,-0.03453,38.617001,-17.917931,-19.957035
1305397830382810,-9.50547,1.708415,-1.88109,0.332658,0.030851,-0.012573,48.327108,11.696472,13.855732,-9.570279,-0.84928,-1.832286,0.016421,0.010629,-0.012304,45.566728,-30.596542,12.636934,-9.631383,-0.227312,-1.686717,0.046822,-0.007906,-0.030564,36.739875,-2.648906,-49.340491,-9.487675,-1.262601,-1.402428,0.195815,0.20075,-0.019931,38.789005,-60.001629,-31.720369,-8.586294,-0.041311,-4.57228,0.238407,0.103211,-0.003145,19.031315,-48.958654,-83.16373,-9.597751,0.291315,-1.392811,-0.035855,0.203825,0.00461,24.088043,-20.733898,-52.150794,-8.700314,0.024828,4.52993,0.180482,1.178435,-0.058437,31.255889,-17.963966,-17.391183
1305397830390620,-9.496789,1.732579,-1.863234,0.319422,0.027141,-0.012699,47.843414,12.189209,13.825152,-9.563638,-0.84716,-1.839098,0.021184,0.005982,-0.010755,45.576067,-30.121156,12.126821,-9.589096,-0.217214,-1.677233,0.041755,-0.019232,-0.018362,35.933846,-2.649907,-48.494932,-9.511717,-1.267687,-1.411836,0.201053,0.204398,-0.002099,37.95054,-63.131937,-30.49869,-8.57715,-0.05272,-4.57227,0.238157,0.092183,-0.045417,18.458825,-48.928273,-81.764626,-9.60924,0.314745,-1.353011,-0.03866,0.211425,0.040398,26.964997,-22.085295,-42.72023,-8.702528,0.034043,4.536997,0.176151,1.176103,-0.02261,36.033142,-24.062305,-22.802361
1305397830398430,-9.484113,1.641902,-1.896805,0.297927,0.031366,-0.012985,47.850047,12.183239,13.315066,-9.568186,-0.840468,-1.839108,0.024372,0.013753,-0.018664,46.062393,-30.119668,12.612947,-9.615067,-0.231655,-1.670244,0.047121,0.003614,-0.0488,35.103119,-3.684755,-47.671664,-9.508845,-1.242097,-1.421259,0.209096,0.205825,-0.020125,37.970129,-60.015868,-32.597336,-8.565334,-0.045568,-4.567602,0.231663,0.105228,-0.033412,19.686186,-49.791672,-82.445976,-9.604605,0.307743,-1.383451,-0.026334,0.202399,0.010713,27.17816,-27.594421,-48.1956,-8.674463,0.03215,4.546378,0.174685,1.180743,0.03119,38.521854,-20.855621,-20.187059
1305397830406250,-9.468423,1.650529,-1.872289,0.294566,0.029689,-0.011445,48.326104,12.186028,13.833991,-9.585885,-0.846847,-1.827751,0.021239,0.015221,-0.010662,46.065291,-30.127018,12.12866,-9.600936,-0.226731,-1.663163,0.040222,-0.017503,-0.024423,35.926986,-2.63182,-47.655906,-9.520371,-1.216763,-1.411812,0.228129,0.202006,0.021285,38.789005,-60.001629,-31.720369,-8.560323,-0.026967,-4.558277,0.234933,0.101941,-0.033396,19.059547,-49.790816,-82.469818,-9.616441,0.307553,-1.355346,-0.02494,0.194623,0.016479,29.494132,-27.780628,-48.108959,-8.648626,0.034836,4.5181,0.177919,1.172871,-0.028599,36.128289,-21.124616,-22.572337
1305397830414060,-9.477872,1.677149,-1.865556,0.284553,0.039355,-0.008506,47.843414,12.189209,13.825152,-9.583888,-0.831425,-1.823233,0.016475,0.013646,-0.005885,46.055952,-30.602404,12.638772,-9.551558,-0.209552,-1.684211,0.032202,-0.010954,-0.018338,34.391763,-0.638477,-49.276304,-9.543973,-1.196291,-1.392927,0.235625,0.202781,-0.032532,38.766976,-61.042742,-31.588478,-8.569518,-0.017867,-4.574611,0.239638,0.103899,-0.051634,19.111383,-48.067442,-81.011751,-9.614107,0.30523,-1.364713,-0.027984,0.203048,-0.007128,24.467264,-22.534837,-47.639514,-8.615732,0.042258,4.52277,0.174686,1.167969,0.02514,36.178332,-17.996689,-19.911892
1305397830421870,-9.485138,1.714677,-1.92792,0.28148,0.024124,-0.016253,48.327108,11.696472,13.855732,-9.577375,-0.820496,-1.811897,0.016439,0.009042,-0.007528,46.538736,-31.091003,12.666436,-9.565579,-0.205199,-1.726533,0.046413,-0.005335,0.017933,35.134677,-2.668995,-48.488397,-9.541127,-1.170692,-1.374064,0.244087,0.207995,-0.020711,37.972568,-62.090825,-30.63058,-8.553187,-0.019895,-4.560608,0.236749,0.10162,-0.009171,19.059547,-49.790816,-82.469818,-9.606903,0.31243,-1.376428,-0.03104,0.205508,0.004755,26.798938,-25.793482,-52.70688,-8.599351,0.042504,4.536874,0.167289,1.17791,0.00128,41.005628,-20.967101,-22.662624
1305397830429680,-9.465873,1.791591,-1.941219,0.299694,0.041122,-0.016173,47.843414,12.189209,13.825152,-9.572989,-0.816151,-1.807362,0.02439,0.009054,-0.010725,46.049511,-31.085141,12.664597,-9.570963,-0.240296,-1.768888,0.043791,-0.015478,-0.06083,35.958544,-1.616061,-48.472639,-9.547789,-1.140621,-1.348121,0.247588,0.201668,-0.014846,37.994597,-61.049712,-30.762471,-8.567043,-0.01327,-4.579226,0.233614,0.10608,0.027151,19.111383,-48.067442,-81.011751,-9.604852,0.291202,-1.378758,-0.013378,0.208211,0.02896,36.35117,-28.657124,-50.265358,-8.580633,0.040468,4.527435,0.169894,1.186626,-0.028538,43.584549,-18.140891,-24.908165
1305397830437500,-9.471158,1.842428,-1.925542,0.296216,0.026461,-0.0114,47.843414,12.189209,13.825152,-9.561734,-0.825154,-1.805078,0.021221,0.018364,-0.01702,46.05885,-30.609754,12.154485,-9.605808,-0.22466,-1.80183,0.049982,-0.008062,-0.024519,35.965404,-1.634148,-49.311665,-9.530432,-1.107793,-1.333984,0.244156,0.217944,-0.008714,38.017844,-61.046078,-29.910983,-8.558124,-0.036242,-4.614197,0.233223,0.106753,-0.021325,19.686186,-49.791672,-82.445976,-9.619145,0.283912,-1.395143,-0.024517,0.20584,0.040547,29.205791,-25.661815,-50.203917,-8.559749,0.024561,4.525073,0.181596,1.193452,0.025305,41.055671,-17.839174,-20.002178
1305397830445310,-9.484378,1.818342,-1.934475,0.298186,0.035932,-0.020848,48.332738,12.180058,13.323905,-9.56811,-0.84497,-1.780079,0.022859,0.01517,-0.005871,46.049511,-31.085141,12.664597,-9.638447,-0.222876,-1.76428,0.058226,-0.004783,-0.04277,35.130557,-3.757103,-51.027767,-9.505584,-1.058576,-1.324563,0.218822,0.213874,-0.032171,38.017844,-61.046078,-29.910983,-8.569918,-0.043409,-4.579216,0.243197,0.106425,0.008896,19.11254,-48.914366,-81.029311,-9.633375,0.281335,-1.388112,-0.029092,0.213507,0.034712,22.759377,-32.731132,-53.844253,-8.576264,0.017385,4.536861,0.17104,1.199904,-0.004558,43.25894,-23.445557,-18.076946
1305397830453120,-9.501691,1.76562,-1.956817,0.301591,0.032615,-0.023915,47.850047,12.183239,13.315066,-9.583982,-0.824831,-1.800541,0.024408,0.016801,-0.015439,46.055952,-30.602404,12.638772,-9.647375,-0.202035,-1.736067,0.049703,-0.008469,0.0058,35.916008,-3.701841,-49.356249,-9.519447,-1.030969,-1.33397,0.214736,0.206664,0.021546,38.016625,-60.008599,-30.894361,-8.5748,-0.055068,-4.579214,0.241273,0.10202,-0.033447,19.032472,-49.805578,-83.18129,-9.645172,0.283514,-1.37406,-0.035106,0.22743,0.02307,29.09921,-22.907252,-47.466232,-8.609063,0.0169,4.539255,0.158873,1.199964,0.019314,45.8428,-17.301183,-15.23162
1305397830460930,-9.490266,1.756655,-1.936778,0.319574,0.026927,-0.017394,47.850047,12.183239,13.315066,-9.579537,-0.824855,-1.830052,0.022815,0.015249,-0.013857,46.055952,-30.602404,12.638772,-9.67521,-0.186277,-1.773697,0.056431,-0.011352,-0.030607,36.715177,-3.682753,-49.362784,-9.524445,-1.042672,-1.34104,0.20098,0.202668,-0.008075,38.016625,-60.008599,-30.894361,-8.591217,-0.057667,-4.600213,0.23503,0.101537,-0.003097,19.685029,-48.944748,-82.428416,-9.647573,0.281115,-1.371716,-0.03569,0.205926,0.028434,22.364454,-27.857756,-53.201526,-8.620648,0.025976,4.546333,0.169502,1.207698,-0.004516,36.083185,-20.934378,-20.141915
1305397830468750,-9.503597,1.739207,-1.932326,0.323095,0.034953,-0.023681,47.850047,12.183239,13.315066,-9.59302,-0.815799,-1.845958,0.024453,0.013611,-0.004289,46.055952,-30.602404,12.638772,-9.638526,-0.225233,-1.785434,0.072565,-0.011644,-0.036766,35.898169,-4.753774,-50.217567,-9.544254,-1.077863,-1.341033,0.190974,0.21073,-0.001884,37.198969,-61.060316,-30.787951,-8.614514,-0.053453,-4.60256,0.23814,0.100161,-0.021281,19.085465,-48.929129,-81.740784,-9.65951,0.273844,-1.357658,-0.032266,0.217373,0.010983,27.193861,-30.666859,-53.349607,-8.64834,0.053301,4.539312,0.17036,1.208448,-0.034385,38.712149,-14.980242,-19.727011
1305397830476560,-9.514487,1.708504,-1.914519,0.324992,0.026446,-0.031422,48.331734,12.669614,13.302165,-9.588245,-0.837946,-1.850466,0.022823,0.012122,-0.009096,46.05885,-30.609754,12.154485,-9.596615,-0.236107,-1.773626,0.078887,0.002297,-0.006544,35.89131,-4.735687,-49.378542,-9.540236,-1.121916,-1.37405,0.179691,0.201141,0.016144,37.994597,-61.049712,-30.762471,-8.618988,-0.041957,-4.611896,0.235015,0.085195,-0.02107,19.085465,-48.929129,-81.740784,-9.654746,0.276272,-1.348294,-0.041958,0.212722,0.004717,29.024031,-26.297564,-55.036561,-8.669426,0.052989,4.541692,0.166342,1.204209,-0.010519,38.667044,-14.790004,-17.296589
1305397830484370,-9.520889,1.67995,-1.890026,0.333019,0.035275,-0.023567,47.850047,12.183239,13.315066,-9.597111,-0.840027,-1.848194,0.024463,0.021373,-0.010601,45.569626,-30.603892,12.152646,-9.639225,-0.264838,-1.773733,0.072604,0.00108,-0.02469,34.353346,-1.63615,-47.620545,-9.555231,-1.157025,-1.397618,0.173023,0.201037,0.016258,37.220998,-60.019203,-30.919841,-8.62822,-0.035176,-4.618901,0.239925,0.091711,-0.009072,18.512975,-48.898748,-80.34168,-9.668767,0.287868,-1.336587,-0.04371,0.20238,0.034114,28.91745,-23.543001,-52.298875,-8.681137,0.052815,4.539352,0.163204,1.202296,-0.016513,38.617001,-17.917931,-19.957035
1305397830492180,-9.523616,1.710889,-1.878836,0.351148,0.02445,-0.021702,47.850047,12.183239,13.315066,-9.594982,-0.83345,-1.836853,0.018024,0.019943,-0.020198,46.05885,-30.609754,12.154485,-9.641834,-0.283475,-1.733807,0.07726,-0.004027,-0.012572,35.933846,-2.649907,-48.494932,-9.543722,-1.170558,-1.416477,0.189427,0.20827,0.004092,38.017844,-61.046078,-29.910983,-8.625506,-0.0143,-4.611911,0.233758,0.087825,0.027379,18.432907,-49.789959,-82.493659,-9.656793,0.297508,-1.360013,-0.033868,0.211355,0.046438,21.68119,-20.865566,-54.653757,-8.707085,0.040876,4.546442,0.169021,1.196997,0.007371,40.960523,-20.776863,-20.232202
1305397830500000,-9.532787,1.726632,-1.880957,0.34113,0.028158,-0.029734,48.335877,12.179802,13.324855,-9.590432,-0.840158,-1.825492,0.019645,0.018337,-0.013825,45.566728,-30.596542,12.636934,-9.662944,-0.290799,-1.693899,0.065967,-0.006987,-0.012493,35.958544,-1.616061,-48.472639,-9.537044,-1.198298,-1.414135,0.193989,0.214402,-0.01981,37.176941,-62.101429,-30.65606,-8.611088,0.006773,-4.576926,0.233579,0.079948,-0.002816,19.657954,-48.959511,-83.139889,-9.647114,0.302205,-1.392829,-0.02421,0.20371,0.05238,29.205791,-25.661815,-50.203917,-8.713959,0.050016,4.532329,0.166814,1.192679,0.025266,41.100775,-18.029411,-22.4326
1305397830507810,-9.527829,1.697866,-1.892146,0.324544,0.030974,-0.028385,47.853154,12.182983,13.316015,-9.5904,-0.842364,-1.827759,0.013279,0.019892,-0.013808,46.065291,-30.127018,12.12866,-9.650562,-0.255589,-1.663282,0.065669,-0.018507,0.005744,35.109979,-3.702842,-48.51069,-9.522779,-1.202671,-1.38115,0.200604,0.211154,-0.025911,37.994597,-61.049712,-30.762471,-8.587613,0.011811,-4.55126,0.236712,0.081807,-0.014982,19.031315,-48.958654,-83.16373,-9.613781,0.316883,-1.41158,-0.023994,0.211306,0.052584,27.26904,-27.276547,-45.779278,-8.723646,0.029072,4.539397,0.16923,1.199983,0.001414,36.128289,-21.124616,-22.572337
1305397830515620,-9.513829,1.671155,-1.918948,0.308057,0.032008,-0.030153,47.853154,12.182983,13.316015,-9.586342,-0.815931,-1.823256,0.013288,0.01832,-0.010629,45.569626,-30.603892,12.152646,-9.643179,-0.236796,-1.646795,0.061181,-0.008405,-0.018521,35.159375,-1.635149,-48.466105,-9.511297,-1.230328,-1.390597,0.212418,0.214797,-0.014157,37.222217,-61.056682,-29.936463,-8.59205,0.025625,-4.567594,0.235083,0.094899,-0.003015,19.038255,-54.040199,-83.269093,-9.599619,0.314739,-1.425634,-0.025647,0.209967,0.046573,24.103744,-23.806336,-57.304801,-8.739936,0.033445,4.506462,0.140868,1.203747,0.019294,38.521854,-20.855621,-20.187059
1305397830523430,-9.511729,1.684329,-1.943456,0.276583,0.032701,-0.028962,48.335877,12.179802,13.324855,-9.593179,-0.804798,-1.816462,0.013225,0.01532,-0.018646,45.569626,-30.603892,12.152646,-9.621681,-0.208491,-1.681977,0.056153,-0.007007,0.005755,35.127817,-2.650908,-47.649372,-9.52321,-1.225896,-1.374085,0.217291,0.218011,-0.020186,37.220998,-60.019203,-30.919841,-8.606244,0.016115,-4.56993,0.225513,0.092894,0.015261,19.031315,-48.958654,-83.16373,-9.585457,0.312596,-1.442029,-0.030443,0.208049,0.052364,26.980698,-25.157733,-47.874237,-8.761222,0.02158,4.532378,0.165276,1.187699,0.019258,41.055671,-17.839174,-20.002178
1305397830531250,-9.484167,1.657443,-1.952439,0.270016,0.030775,-0.03059,47.852151,12.672572,13.294273,-9.590852,-0.811487,-1.796021,0.014828,0.013744,-0.015468,46.05885,-30.609754,12.154485,-9.597697,-0.173138,-1.705395,0.069295,-0.006899,-0.024639,35.958544,-1.616061,-48.472639,-9.539908,-1.221555,-1.366997,0.230923,0.208705,-0.008548,37.175721,-61.06395,-31.639438,-8.608753,0.006817,-4.58159,0.228512,0.093346,-0.015062,19.633193,-50.668121,-83.886482,-9.583268,0.300814,-1.437339,-0.038439,0.206257,0.052149,28.719988,-21.106313,-51.977512,-8.744786,0.024134,4.530005,0.16194,1.192258,-0.034499,38.526792,-17.537456,-15.096191
1305397830539060,-9.475816,1.705852,-1.954616,0.271623,0.034181,-0.029032,48.334873,12.669391,13.303113,-9.597418,-0.811286,-1.800563,0.027589,0.019735,-0.015506,46.06419,-30.120985,12.613355,-9.59721,-0.142773,-1.728816,0.069424,-0.000476,-0.030728,35.141536,-2.687082,-49.327423,-9.551138,-1.179962,-1.355188,0.232896,0.22225,0.021337,38.857529,-58.953248,-30.149284,-8.597552,-0.020762,-4.567579,0.229908,0.103571,-0.033378,20.258675,-49.822053,-83.84508,-9.585389,0.317316,-1.432664,-0.027132,0.212716,0.052555,29.114911,-25.979689,-52.620239,-8.707125,0.036246,4.522901,0.159858,1.184623,-0.022599,41.005628,-20.967101,-22.662624
1305397830546870,-9.474372,1.761001,-1.94117,0.270018,0.032415,-0.030603,48.328238,12.675361,13.813234,-9.586258,-0.813683,-1.784667,0.013272,0.024389,-0.015456,46.546987,-30.609597,12.64102,-9.597752,-0.168465,-1.773502,0.048355,-0.004985,-0.018458,34.342367,-2.70617,-49.320889,-9.55278,-1.138194,-1.345745,0.229567,0.205761,0.009354,37.948101,-61.05698,-32.465446,-8.628318,-0.042139,-4.572253,0.233292,0.091901,-0.027199,20.28575,-49.807291,-83.133608,-9.611421,0.316908,-1.392847,-0.027109,0.21447,0.046661,26.889818,-25.475607,-50.290558,-8.704936,0.024718,4.508772,0.16513,1.189441,0.025243,43.304045,-23.635795,-20.507368
1305397830554680,-9.487864,1.754585,-1.936705,0.27813,0.027975,-0.025774,48.328238,12.675361,13.813234,-9.579386,-0.827044,-1.777837,0.01646,0.024381,-0.015457,46.546987,-30.609597,12.64102,-9.614902,-0.210725,-1.782983,0.038764,0.000071,-0.018421,34.342367,-2.70617,-49.320889,-9.547576,-1.114875,-1.3316,0.214088,0.206605,-0.020206,37.948101,-61.05698,-32.465446,-8.61458,-0.058095,-4.572239,0.22354,0.088573,-0.033141,20.28575,-49.807291,-83.133608,-9.630286,0.321333,-1.355376,-0.028774,0.207166,0.07614,26.889818,-25.475607,-50.290558,-8.67676,0.029759,4.511093,0.167358,1.195335,0.007357,43.304045,-23.635795,-20.507368
1305397830562500,-9.494129,1.717196,-1.918911,0.294663,0.023589,-0.025546,47.787867,12.400023,13.67751,-9.572683,-0.829322,-1.798263,0.02441,0.021283,-0.01549,45.780589,-30.865205,12.661096,-9.59928,-0.250072,-1.801807,0.042129,0.008132,-0.024536,35.734014,-1.46666,-49.15499,-9.518652,-1.105058,-1.326909,0.20887,0.201334,-0.03805,37.458747,-60.396531,-31.706165,-8.579629,-0.06442,-4.558223,0.238281,0.088461,-0.015077,18.938305,-48.350519,-82.922007,-9.639744,0.321199,-1.367082,-0.026999,0.219262,0.040848,27.828098,-26.517805,-49.076435,-8.641509,0.037213,4.50399,0.173384,1.193022,0.025283,42.397602,-27.647077,-25.549357
1305397830570310,-9.475887,1.708103,-1.921173,0.293161,0.023321,-0.03026,47.910699,12.737839,13.508527,-9.563851,-0.825013,-1.814159,0.022825,0.019715,-0.01231,45.698009,-30.45283,12.507732,-9.62296,-0.269106,-1.773668,0.051386,0.002587,0.011809,36.307934,-3.766115,-48.159999,-9.518514,-1.098094,-1.338693,0.206193,0.200421,0.003753,38.000321,-60.718117,-31.679182,-8.584226,-0.05987,-4.565224,0.236473,0.093676,-0.033305,19.440025,-49.6119,-82.479373,-9.64441,0.325845,-1.350691,-0.038267,0.212334,0.052313,26.073835,-25.919647,-48.673417,-8.625174,0.03283,4.499261,0.167964,1.202719,-0.010524,39.595376,-19.958757,-17.176632
1305397830578120,-9.478699,1.743478,-1.892143,0.296417,0.021859,-0.028644,47.725675,12.579164,12.974286,-9.570759,-0.809417,-1.839154,0.02441,0.022838,-0.017071,45.529145,-30.607197,12.55877,-9.629963,-0.271522,-1.74078,0.042184,-0.001289,-0.042688,34.246159,-1.772954,-49.390531,-9.511943,-1.132808,-1.357567,0.211726,0.194554,0.03345,37.602765,-55.268216,-32.341791,-8.572421,-0.052711,-4.579214,0.228529,0.085132,-0.021019,19.646594,-48.74141,-81.374207,-9.62601,0.290688,-1.357702,-0.02097,0.203116,0.070255,33.678868,-23.913017,-48.805655,-8.615977,0.02141,4.501601,0.165756,1.211174,0.013421,39.577064,-25.203451,-24.481482
1305397830585930,-9.482779,1.712655,-1.889949,0.294827,0.03322,-0.030318,48.427582,12.083438,13.496425,-9.559537,-0.816208,-1.839142,0.022807,0.016635,-0.012341,45.693553,-30.511887,12.534157,-9.606298,-0.259397,-1.703122,0.053252,-0.008156,-0.030601,35.625728,-2.783979,-50.199169,-9.492855,-1.137104,-1.357586,0.201047,0.196881,-0.008114,38.065078,-61.33951,-30.648452,-8.55588,-0.043166,-4.56055,0.231967,0.084827,0.003194,20.120427,-48.625541,-81.956288,-9.658779,0.313818,-1.345997,-0.014678,0.198074,0.088078,26.486725,-26.676556,-56.570929,-8.594874,0.021718,4.485098,0.160765,1.218962,0.019429,37.012376,-18.969255,-19.081282
1305397830593750,-9.48415,1.650914,-1.883339,0.299739,0.033452,-0.028696,47.920618,12.086079,13.485009,-9.577338,-0.815932,-1.848226,0.017953,0.001217,-0.009301,45.663021,-30.502378,12.53167,-9.604011,-0.263992,-1.684323,0.049982,0.001339,-0.01243,34.787093,-2.74855,-47.669379,-9.509747,-1.144382,-1.369358,0.207222,0.199686,-0.038032,38.021958,-62.365476,-30.514209,-8.550957,-0.029191,-4.560553,0.234955,0.10494,-0.009198,18.255767,-48.59585,-81.306418,-9.636252,0.23855,-1.324887,-0.007159,0.191341,0.034587,33.205591,-21.719646,-50.829528,-8.615895,0.026031,4.489833,0.175672,1.229191,0.019524,36.755724,-24.649029,-17.107696
1305397830601560,-9.511053,1.63148,-1.86104,0.306387,0.018828,-0.030069,48.409975,12.076928,12.983728,-9.572724,-0.827045,-1.845939,0.022807,0.011968,-0.007596,45.663021,-30.502378,12.53167,-9.59943,-0.268578,-1.691371,0.051457,-0.014725,-0.018438,35.593122,-2.747549,-48.514938,-9.528822,-1.14009,-1.383482,0.197144,0.206018,-0.037818,38.020739,-61.327998,-31.497587,-8.557597,-0.008481,-4.558232,0.228465,0.111432,-0.00317,18.854174,-47.764545,-81.976489,-9.482706,0.219766,-1.692576,-0.061613,0.227757,0.064113,26.561716,-26.352276,-54.1485,-8.641638,0.027963,4.496926,0.162554,1.217306,0.013449,39.239498,-24.760509,-19.583261
1305397830609370,-9.513229,1.627073,-1.881107,0.296321,0.026924,-0.025552,47.926249,12.569698,12.953147,-9.575178,-0.811551,-1.845962,0.024392,0.015092,-0.012357,46.155158,-30.51559,12.049207,-9.622697,-0.262013,-1.693752,0.050453,-0.02094,0.084663,35.62468,-1.731789,-49.331672,-9.521762,-1.146927,-1.381133,0.202859,0.200368,0.00381,38.066015,-60.283251,-30.77799,-8.566987,-0.010965,-4.553572,0.22845,0.095089,-0.021142,18.855331,-48.611469,-81.99405,-9.469646,0.304944,-1.589588,-0.054157,0.219739,0.004646,24.230042,-23.093631,-49.081134,-8.695472,0.031794,4.515824,0.16906,1.225695,0.019488,39.284602,-24.950747,-22.013683
1305397830617180,-9.515567,1.6337,-1.90116,0.294663,0.023589,-0.025546,47.919615,12.575668,13.463267,-9.577598,-0.798271,-1.841441,0.019547,0.008991,-0.01721,45.659478,-30.992478,12.073194,-9.590743,-0.305691,-1.686702,0.101589,-0.008329,-0.218842,35.62468,-1.731789,-49.331672,-9.509855,-1.151356,-1.390574,0.207819,0.21191,0.009767,38.021958,-62.365476,-30.514209,-8.5926,0.009776,-4.549026,0.232157,0.111802,-0.033498,18.828256,-48.626232,-82.705523,-9.588538,0.42817,-1.20323,0.01265,0.21186,0.071187,33.312172,-24.474209,-53.567213,-8.723369,0.045247,4.508799,0.170221,1.227853,0.037429,39.334645,-21.82282,-19.353237
1305397830625000,-9.497674,1.651045,-1.934598,0.273065,0.026316,-0.022689,48.402337,12.572487,13.472107,-9.573048,-0.80498,-1.83008,0.017962,0.007423,-0.01403,45.663021,-30.502378,12.53167,-9.599555,-0.273268,-1.714879,0.053493,-0.010971,-0.060906,34.787093,-2.74855,-47.669379,-9.519151,-1.13527,-1.383489,0.213938,0.219581,-0.020118,37.270388,-60.293855,-30.80347,-8.592074,0.03988,-4.567696,0.234153,0.094802,-0.003006,19.479657,-46.918477,-81.935087,-9.634873,0.328424,-1.491201,-0.022054,0.225503,0.041115,31.17796,-23.652252,-48.821211,-8.685517,0.045479,4.475733,0.165968,1.221525,0.013481,34.317055,-24.727787,-17.062553
1305397830632810,-9.47961,1.655174,-1.950218,0.269921,0.03584,-0.027499,47.920618,12.086079,13.485009,-9.584038,-0.81368,-1.809638,0.021186,0.01202,-0.012387,46.155158,-30.51559,12.049207,-9.613459,-0.26423,-1.738393,0.060677,-0.013989,0.030008,37.990631,-2.690285,-48.534541,-9.550784,-1.161385,-1.371682,0.220483,0.206383,-0.038215,38.839614,-61.31376,-30.620619,-8.608847,0.016434,-4.560699,0.230728,0.093448,-0.027198,18.14631,-47.807977,-84.134749,-9.568708,0.324683,-1.493559,-0.015994,0.215087,0.040968,25.771871,-16.605522,-52.863046,-8.734738,0.044756,4.496978,0.172182,1.220623,0.025441,32.018638,-22.059092,-19.217808
1305397830640620,-9.463839,1.661539,-1.968062,0.261394,0.032646,-0.019743,47.920618,12.086079,13.485009,-9.55537,-0.796486,-1.775606,0.019655,0.013468,-0.002789,45.663021,-30.502378,12.53167,-9.59202,-0.242867,-1.73363,0.058056,-0.01463,-0.036667,35.631539,-1.749876,-50.170697,-9.524211,-1.14929,-1.369346,0.213868,0.209632,-0.032114,38.883671,-59.231534,-30.8844,-8.611233,0.014081,-4.572361,0.240471,0.091881,-0.027255,19.509045,-48.597563,-81.258735,-9.559194,0.33181,-1.306224,-0.011308,0.212213,0.04099,33.493932,-23.83846,-48.73457,-8.760036,0.076742,4.504079,0.169002,1.215558,0.019429,34.412203,-21.790097,-16.832529
1305397830648430,-9.448501,1.696607,-1.972493,0.258187,0.032397,-0.022911,48.40334,12.082898,13.493849,-9.542021,-0.796678,-1.780144,0.016468,0.015032,-0.00437,46.155158,-30.51559,12.049207,-9.579812,-0.216983,-1.705376,0.056263,-0.011697,-0.012416,35.575284,-3.799482,-49.376256,-9.485343,-1.118385,-1.33873,0.223909,0.206544,-0.032307,37.225112,-61.338602,-31.523067,-8.599873,-0.004232,-4.570015,0.235895,0.097884,0.015118,18.202774,-49.4723,-82.746924,-9.574406,0.260779,-1.420928,-0.006292,0.223714,0.023574,25.771871,-16.605522,-52.863046,-8.717424,0.105102,4.475788,0.168239,1.217798,-0.010435,36.800829,-24.839267,-19.538118
1305397830656250,-9.46191,1.685758,-1.983638,0.253323,0.028812,-0.026072,47.920618,12.086079,13.485009,-9.544379,-0.78779,-1.793778,0.019565,0.00896,-0.014015,45.663021,-30.502378,12.53167,-9.560756,-0.195694,-1.726469,0.061032,-0.002388,0.005708,35.575284,-3.799482,-49.376256,-9.473395,-1.118156,-1.301027,0.217806,0.205469,0.003587,37.270388,-60.293855,-30.80347,-8.56951,-0.006014,-4.546675,0.229155,0.093348,-0.021126,18.227535,-47.763689,-82.000331,-9.56759,0.241983,-1.42092,0.003369,0.222636,0.059395,23.957402,-24.047255,-56.330099,-8.745496,0.109315,4.499362,0.164493,1.221274,0.007501,34.407264,-25.108262,-21.923397
1305397830664060,-9.457749,1.709978,-1.972465,0.243306,0.035196,-0.023108,48.40334,12.082898,13.493849,-9.550958,-0.794304,-1.80285,0.025994,0.011961,-0.007597,46.145819,-30.99099,12.559335,-9.572633,-0.20294,-1.759401,0.059368,-0.002432,0.011781,34.793953,-2.766637,-48.508404,-9.494379,-1.086029,-1.291569,0.22066,0.223038,-0.014244,37.24714,-60.29749,-31.654957,-8.54396,-0.014816,-4.546657,0.224016,0.103595,-0.04545,18.201617,-48.625376,-82.729364,-9.607496,0.262637,-1.39516,-0.021925,0.230061,0.041238,23.653359,-18.856004,-53.27105,-8.738636,0.097859,4.496997,0.162642,1.205427,0.007405,41.58302,-27.619441,-19.858428
1305397830671870,-9.482423,1.692721,-1.947937,0.258349,0.040387,-0.02767,47.920618,12.086079,13.485009,-9.561792,-0.813983,-1.827795,0.017981,0.010503,-0.013999,45.65658,-30.985127,12.557496,-9.636091,-0.218108,-1.790078,0.056377,0.00747,-0.000366,35.635659,-0.661769,-47.631328,-9.515931,-1.086428,-1.310406,0.211909,0.210902,-0.049971,38.020739,-61.327998,-31.497587,-8.520874,-0.030604,-4.551303,0.234033,0.091735,-0.021144,18.855331,-48.611469,-81.99405,-9.61649,0.29553,-1.313214,-0.031602,0.223187,0.052737,31.071379,-20.89769,-46.083525,-8.673453,0.068769,4.468663,0.161587,1.198376,-0.016539,44.211984,-21.665305,-19.443524
1305397830679680,-9.486786,1.679579,-1.923427,0.260093,0.030453,-0.030704,47.920618,12.086079,13.485009,-9.572917,-0.813818,-1.827797,0.021141,0.007432,-0.015628,45.659478,-30.992478,12.073194,-9.634217,-0.243702,-1.790107,0.05331,0.010929,-0.012488,34.800812,-2.784724,-49.34743,-9.547187,-1.098698,-1.315075,0.202586,0.207945,-0.008068,37.248359,-61.334968,-30.671579,-8.544457,-0.042597,-4.548979,0.238735,0.100248,-0.033405,18.854174,-47.764545,-81.976489,-9.580957,0.298449,-1.367086,-0.034595,0.237107,0.005512,28.680227,-24.101794,-53.740495,-8.634213,0.027739,4.442711,0.153625,1.204085,-0.022499,36.895976,-21.901577,-19.308094
1305397830687500,-9.509416,1.668699,-1.903446,0.268733,0.026521,-0.028939,47.916845,12.086397,13.483845,-9.579952,-0.789416,-1.832373,0.01799,0.018266,-0.020311,45.663021,-30.502378,12.53167,-9.609254,-0.285189,-1.792466,0.046543,0.001089,0.011844,35.61782,-1.713702,-48.492646,-9.56655,-1.110668,-1.338632,0.195314,0.212055,-0.043712,37.24714,-60.29749,-31.654957,-8.560737,-0.03826,-4.546658,0.240662,0.098099,0.002961,19.454896,-48.627088,-82.681681,-9.585838,0.298605,-1.392871,-0.042974,0.231735,0.023019,33.114711,-22.037521,-53.24585,-8.695983,-0.02864,4.475726,0.155465,1.210473,0.031317,41.678167,-24.681752,-19.628404
1305397830695310,-9.513809,1.657762,-1.881162,0.268638,0.031586,-0.025848,47.916845,12.086397,13.483845,-9.575729,-0.774034,-1.823314,0.01483,0.026004,-0.023427,45.665919,-30.509728,12.047368,-9.633035,-0.308896,-1.773734,0.040409,-0.001496,-0.024488,35.635659,-0.661769,-47.631328,-9.530624,-1.112341,-1.359879,0.197107,0.217164,-0.031777,37.226331,-62.376081,-30.539689,-8.598197,-0.043576,-4.497699,0.235918,0.101119,0.021136,18.801181,-48.640994,-83.416995,-9.639546,0.345049,-1.385856,-0.03142,0.241346,0.05916,26.850057,-28.471089,-52.053541,-8.766652,-0.052789,4.515822,0.161126,1.202024,0.001406,39.429793,-18.88513,-19.123214
1305397830703120,-9.518166,1.646783,-1.890088,0.270298,0.036562,-0.025868,48.399529,12.083216,13.492684,-9.58666,-0.787099,-1.839188,0.014821,0.022909,-0.021861,45.663021,-30.502378,12.53167,-9.663252,-0.30011,-1.762023,0.034051,-0.009156,-0.042608,34.793953,-2.766637,-48.508404,-9.508798,-1.098012,-1.362252,0.196021,0.222765,0.010041,37.271607,-61.331334,-29.820092,-8.637458,-0.016493,-4.523386,0.222434,0.098601,-0.045375,18.859958,-51.999166,-82.064291,-9.646986,0.321329,-1.409259,-0.041968,0.210285,0.028417,26.850057,-28.471089,-52.053541,-8.752622,-0.052575,4.536991,0.16435,1.184694,-0.004662,36.946019,-18.77365,-16.647649
1305397830710930,-9.52941,1.642523,-1.898998,0.253805,0.032673,-0.027597,48.399529,12.083216,13.492684,-9.586662,-0.787089,-1.845999,0.018017,0.025997,-0.023428,45.663021,-30.502378,12.53167,-9.658522,-0.299987,-1.731462,0.030408,-0.008121,0.005913,35.635659,-0.661769,-47.631328,-9.525548,-1.098326,-1.390522,0.191058,0.219442,0.010104,38.020739,-61.327998,-31.497587,-8.618316,0.009317,-4.549041,0.224072,0.090403,-0.051344,19.483127,-49.45925,-81.987769,-9.71021,0.365233,-1.334329,-0.035543,0.211789,0.034532,25.969332,-19.042211,-53.184409,-8.738293,-0.036191,4.50873,0.172351,1.207684,0.013416,36.800829,-24.839267,-19.538118
1305397830718750,-9.529365,1.640302,-1.910148,0.263579,0.034849,-0.022801,47.916845,12.086397,13.483845,-9.591111,-0.787027,-1.843729,0.01799,0.022933,-0.025056,45.663021,-30.502378,12.53167,-9.642117,-0.299666,-1.712633,0.034218,-0.008912,-0.060799,35.593122,-2.747549,-48.514938,-9.540015,-1.103234,-1.388153,0.200878,0.219382,-0.001997,37.248359,-61.334968,-30.671579,-8.595238,-0.006465,-4.56768,0.225863,0.093401,-0.02716,20.10861,-48.613182,-81.946367,-9.696481,0.332416,-1.427985,-0.023569,0.240803,0.041486,28.467065,-18.592669,-48.265125,-8.719189,-0.012799,4.492236,0.171514,1.195737,0.037244,34.502412,-22.170572,-21.693373
1305397830726560,-9.511081,1.628991,-1.92133,0.260319,0.03303,-0.024391,47.915841,12.575946,13.462104,-9.5843,-0.780295,-1.843739,0.022708,0.017974,-0.022118,46.156128,-30.511094,12.534382,-9.623301,-0.289701,-1.707943,0.053472,-0.008141,-0.054854,35.599982,-2.765636,-49.353964,-9.52839,-1.12159,-1.366956,0.20134,0.203487,0.015788,37.226331,-62.376081,-30.539689,-8.600127,-0.018119,-4.581672,0.222581,0.098348,-0.027196,18.231005,-50.304461,-82.053012,-9.663682,0.311637,-1.418616,-0.024557,0.207848,0.028717,28.648825,-17.95692,-43.432481,-8.716159,0.033472,4.489891,0.16825,1.197141,0.037244,34.357221,-28.236189,-24.583843
1305397830734370,-9.511342,1.648818,-1.945826,0.253752,0.031103,-0.026019,48.399529,12.083216,13.492684,-9.579881,-0.778165,-1.83466,0.01626,0.013448,-0.030149,45.666859,-30.505232,12.532543,-9.604384,-0.280012,-1.686748,0.046426,-0.013638,0.00584,35.61782,-1.713702,-48.492646,-9.52168,-1.147004,-1.352827,0.206232,0.205079,0.009749,37.270388,-60.293855,-30.80347,-8.621139,-0.016171,-4.605007,0.224352,0.091558,-0.015007,18.828256,-48.626232,-82.705523,-9.640109,0.30724,-1.376468,-0.016388,0.215718,0.029094,31.391122,-29.161378,-54.296581,-8.699208,0.070704,4.485172,0.181317,1.200983,-0.016477,36.895976,-21.901577,-19.308094
1305397830742180,-9.500336,1.67071,-1.952499,0.246782,0.031388,-0.01514,47.916845,12.086397,13.483845,-9.575169,-0.795905,-1.832364,0.017917,0.018001,-0.023714,46.149687,-30.993874,12.560209,-9.592866,-0.289128,-1.69144,0.061381,-0.00535,-0.036724,34.793953,-2.766637,-48.508404,-9.512217,-1.153799,-1.357552,0.202624,0.204701,-0.00809,37.225112,-61.338602,-31.523067,-8.61667,-0.027663,-4.605,0.22752,0.094992,-0.021134,19.509045,-48.597563,-81.258735,-9.630471,0.319196,-1.381161,-0.025901,0.210945,0.064417,28.861987,-23.466045,-48.907852,-8.684368,0.124085,4.487523,0.165613,1.207506,0.019374,39.429793,-18.88513,-19.123214
1305397830750000,-9.489391,1.69484,-1.934646,0.235092,0.022951,-0.012079,47.922475,12.569976,12.952026,-9.586031,-0.81342,-1.82553,0.021159,0.024121,-0.020459,45.666859,-30.505232,12.532543,-9.606775,-0.280093,-1.717304,0.061196,-0.002454,-0.012482,34.811791,-1.714703,-47.647086,-9.54127,-1.170583,-1.359888,0.197475,0.20938,-0.013937,38.816366,-61.317394,-31.472107,-8.583893,-0.024768,-4.593321,0.226036,0.08983,-0.00894,18.829413,-49.473156,-82.723083,-9.620727,0.338241,-1.385857,-0.043433,0.212801,0.040335,28.786808,-26.856357,-56.47818,-8.670403,0.117355,4.478088,0.159378,1.206832,0.007405,39.284602,-24.950747,-22.013683
1305397830757810,-9.482077,1.659428,-1.941387,0.220263,0.02732,-0.013853,47.915841,12.575946,13.462104,-9.590642,-0.80233,-1.811926,0.013182,0.025711,-0.023636,45.666859,-30.505232,12.532543,-9.599567,-0.268327,-1.729029,0.064466,-0.007199,-0.024609,34.800812,-2.784724,-49.34743,-9.54797,-1.145173,-1.385802,0.206049,0.204862,-0.002181,37.225112,-61.338602,-31.523067,-8.572324,-0.031508,-4.586315,0.227693,0.091421,-0.002914,18.855331,-48.611469,-81.99405,-9.606359,0.350264,-1.383526,-0.041937,0.205841,0.063948,30.889619,-21.533439,-50.916169,-8.684861,0.089403,4.471036,0.168897,1.220452,0.025432,34.502412,-22.170572,-21.693373
1305397830765620,-9.473268,1.674765,-1.923543,0.231896,0.030905,-0.015311,47.915841,12.575946,13.462104,-9.579811,-0.782619,-1.809683,0.0084,0.024167,-0.022053,46.156128,-30.511094,12.534382,-9.604124,-0.263724,-1.707879,0.059531,-0.007249,-0.012453,35.610961,-1.695615,-47.65362,-9.526713,-1.161033,-1.369327,0.211104,0.208292,0.003721,37.336473,-57.170517,-31.199141,-8.570686,-0.070826,-4.581635,0.224202,0.098364,-0.027209,18.227535,-47.763689,-82.000331,-9.58931,0.383588,-1.383549,-0.055841,0.220776,0.058109,26.241972,-18.088587,-45.935444,-8.690037,0.05697,4.48045,0.165843,1.212069,0.013426,36.79589,-28.157432,-24.628986
1305397830773430,-9.475845,1.696854,-1.9302,0.231957,0.039038,-0.016941,47.916845,12.086397,13.483845,-9.561784,-0.798337,-1.814198,0.013109,0.014948,-0.025341,45.666859,-30.505232,12.532543,-9.622652,-0.252432,-1.724347,0.061086,0.006885,0.011734,35.593122,-2.747549,-48.514938,-9.531633,-1.168088,-1.369324,0.222554,0.211502,-0.008387,38.021958,-62.365476,-30.514209,-8.559235,-0.084515,-4.562965,0.225775,0.098464,-0.033281,18.829413,-49.473156,-82.723083,-9.585199,0.341151,-1.423337,-0.051434,0.20902,0.051951,26.727775,-22.644089,-44.161849,-8.723167,0.033364,4.473421,0.160643,1.21687,0.025391,44.021689,-27.540684,-19.903571
1305397830781250,-9.482232,1.668283,-1.919083,0.243579,0.034419,-0.018334,47.915841,12.575946,13.462104,-9.568232,-0.813687,-1.823257,0.021096,0.016453,-0.02373,45.666859,-30.505232,12.532543,-9.6089,-0.266181,-1.740793,0.062842,0.005481,-0.00646,36.441688,-0.660768,-48.476888,-9.529232,-1.168046,-1.374041,0.22239,0.209663,-0.020328,38.021958,-62.365476,-30.514209,-8.575665,-0.089449,-4.532653,0.230535,0.111786,-0.033485,18.882406,-48.596707,-81.282577,-9.571044,0.338992,-1.411631,-0.042035,0.207013,0.034271,31.466301,-25.771066,-46.726252,-8.742088,0.021529,4.480503,0.165968,1.221525,0.013481,41.723272,-24.871989,-22.058826
1305397830789060,-9.477628,1.661621,-1.901262,0.249883,0.028498,-0.008816,47.916845,12.086397,13.483845,-9.572386,-0.833506,-1.818689,0.019493,0.014917,-0.023745,45.669757,-30.512582,12.048209,-9.62099,-0.289679,-1.724391,0.05441,-0.009155,0.0179,34.818651,-1.73279,-48.486112,-9.514808,-1.165461,-1.376411,0.229424,0.210201,0.003419,38.794338,-62.358506,-31.340216,-8.598832,-0.078293,-4.525673,0.225696,0.108421,-0.033405,18.828256,-48.626232,-82.705523,-9.583148,0.319922,-1.425668,-0.043688,0.205673,0.02826,30.783037,-18.778876,-48.178484,-8.763109,0.025842,4.485238,0.171672,1.203454,-0.02246,36.750786,-27.967194,-22.198564
1305397830796870,-9.509059,1.642253,-1.878958,0.258361,0.033404,-0.01502,47.915841,12.575946,13.462104,-9.57458,-0.835673,-1.825497,0.022699,0.016434,-0.022133,45.669757,-30.512582,12.048209,-9.63061,-0.306139,-1.705625,0.056279,-0.005645,-0.006377,34.769255,-3.800483,-48.530697,-9.526244,-1.135484,-1.371676,0.228675,0.210954,-0.044292,38.042767,-60.286885,-31.629477,-8.603219,-0.06217,-4.525682,0.230991,0.102816,0.015095,18.883563,-49.443631,-81.300137,-9.58826,0.293871,-1.442045,-0.046658,0.211172,0.040225,29.150328,-25.584859,-46.812893,-8.776771,0.05338,4.499385,0.172142,1.204697,0.019373,39.23456,-28.078674,-24.674129
1305397830804680,-9.513356,1.626867,-1.883432,0.268385,0.031942,-0.018023,47.916845,12.086397,13.483845,-9.574907,-0.813585,-1.825528,0.022699,0.019545,-0.025297,46.159026,-30.518445,12.050048,-9.625287,-0.268788,-1.724372,0.038368,-0.015062,0.005893,33.994783,-2.785724,-48.50187,-9.540367,-1.121811,-1.374016,0.219238,0.209828,-0.008341,36.47598,-61.341938,-29.845572,-8.602178,-0.030366,-4.490483,0.219913,0.099958,-0.015078,18.828256,-48.626232,-82.705523,-9.595575,0.279574,-1.413934,-0.031022,0.196639,0.075816,30.889619,-21.533439,-50.916169,-8.755374,0.074497,4.494657,0.177895,1.207444,0.049277,38.954056,-33.573578,-20.273332
1305397830812500,-9.511312,1.642274,-1.887873,0.269894,0.038773,-0.013361,47.916845,12.086397,13.483845,-9.550695,-0.796273,-1.827819,0.02432,0.024161,-0.025251,46.156128,-30.511094,12.534382,-9.639788,-0.296981,-1.700929,0.056017,-0.018694,0.005802,34.800812,-2.784724,-49.34743,-9.530613,-1.112345,-1.371665,0.212529,0.221186,-0.002185,38.883671,-59.231534,-30.8844,-8.595078,-0.025613,-4.483484,0.227754,0.097221,-0.051459,18.228692,-48.610613,-82.017891,-9.609526,0.295895,-1.399888,-0.026391,0.196455,0.046202,29.059448,-25.902734,-49.229215,-8.73204,0.089008,4.485372,0.174015,1.201938,0.007411,39.474897,-19.075368,-21.553636
1305397830820310,-9.502249,1.642133,-1.894571,0.271893,0.030124,-0.024232,48.399529,12.083216,13.492684,-9.564111,-0.791645,-1.836909,0.01952,0.016425,-0.020536,46.159026,-30.518445,12.050048,-9.622989,-0.273374,-1.698522,0.059233,-0.018769,0.005783,35.593122,-2.747549,-48.514938,-9.516015,-1.100471,-1.378746,0.200897,0.217759,-0.002008,36.429484,-61.349207,-31.548547,-8.587944,-0.01854,-4.490479,0.224761,0.108218,-0.00916,17.630284,-49.441918,-81.34782,-9.604827,0.29361,-1.413939,-0.022935,0.203458,0.064282,28.376185,-18.910543,-50.681446,-8.713188,0.096219,4.478289,0.165426,1.198687,0.019322,32.058804,-25.567495,-26.739098
1305397830828120,-9.504671,1.653196,-1.896783,0.271897,0.033405,-0.024258,48.399529,12.083216,13.492684,-9.56624,-0.798226,-1.84598,0.024283,0.013334,-0.020568,45.666859,-30.505232,12.532543,-9.646044,-0.255157,-1.700888,0.061138,-0.016789,-0.024551,35.62468,-1.731789,-49.331672,-9.513525,-1.095784,-1.388176,0.202508,0.222652,-0.002003,37.24714,-60.29749,-31.654957,-8.608905,-0.014283,-4.495157,0.231358,0.106453,0.002929,18.881249,-47.749783,-81.265016,-9.616653,0.293436,-1.416277,-0.026074,0.204868,0.064254,26.743476,-25.716526,-49.315856,-8.68757,0.087356,4.490025,0.161576,1.194284,0.037213,41.818419,-21.9343,-21.828803
1305397830835930,-9.502518,1.661969,-1.91238,0.268328,0.027091,-0.01642,48.399529,12.083216,13.492684,-9.577266,-0.804684,-1.848243,0.017953,0.017937,-0.017325,45.669757,-30.512582,12.048209,-9.629528,-0.247856,-1.691451,0.064335,-0.018474,-0.024563,35.606841,-2.783723,-50.19299,-9.520422,-1.079655,-1.38345,0.204706,0.216733,0.02775,37.204303,-63.417193,-30.407798,-8.590422,-0.025516,-4.518466,0.232752,0.098675,-0.033339,18.854174,-47.764545,-81.976489,-9.618915,0.300486,-1.411597,-0.029247,0.208735,0.040524,33.418754,-27.228772,-56.304898,-8.666957,0.0553,4.48293,0.164203,1.191802,0.001354,31.873448,-28.124709,-22.108277
1305397830843750,-9.506988,1.659799,-1.934671,0.270142,0.033494,-0.021147,47.916845,12.086397,13.483845,-9.577365,-0.798054,-1.850522,0.02269,0.014894,-0.022149,45.666859,-30.505232,12.532543,-9.624689,-0.238455,-1.696131,0.065812,-0.025036,-0.018483,35.61782,-1.713702,-48.492646,-9.518191,-1.088904,-1.388169,0.212168,0.212533,-0.032066,38.020739,-61.327998,-31.497587,-8.576316,-0.020633,-4.525456,0.227982,0.105014,-0.015204,19.454896,-48.627088,-82.681681,-9.618742,0.312296,-1.404578,-0.029141,0.211539,0.046541,26.257673,-21.161024,-51.089451,-8.660021,0.050785,4.501752,0.156723,1.195439,-0.022543,37.03129,-22.47229,-26.59936
1305397830851560,-9.491572,1.688268,-1.923505,0.271593,0.033833,-0.014868,47.916845,12.086397,13.483845,-9.583941,-0.804589,-1.845974,0.019547,0.021045,-0.020489,46.156128,-30.511094,12.534382,-9.613077,-0.240603,-1.719616,0.055794,-0.014268,0.036101,34.793953,-2.766637,-48.508404,-9.532738,-1.098458,-1.390516,0.202492,0.216055,-0.008013,37.225112,-61.338602,-31.523067,-8.585847,-0.030051,-4.551113,0.239541,0.103127,0.008966,19.48197,-48.612326,-81.970208,-9.644872,0.304813,-1.388174,-0.032745,0.200213,0.022404,33.296471,-21.401771,-48.413206,-8.674587,0.015899,4.499406,0.176307,1.199787,-0.016496,32.063742,-22.24933,-21.64823
1305397830859370,-9.505056,1.681843,-1.925727,0.270042,0.035277,-0.01803,48.399529,12.083216,13.492684,-9.573143,-0.782665,-1.846003,0.014685,0.011865,-0.025372,45.666859,-30.505232,12.532543,-9.629804,-0.259557,-1.729069,0.059792,-0.003702,-0.036721,36.441688,-0.660768,-48.476888,-9.552163,-1.112745,-1.392859,0.202784,0.214759,0.009872,38.068454,-62.358208,-28.811234,-8.597745,-0.041834,-4.55578,0.236028,0.106836,-0.021348,18.828256,-48.626232,-82.705523,-9.613744,0.328946,-1.479525,-0.043649,0.205204,0.040131,30.783037,-18.778876,-48.178484,-8.686192,0.02266,4.494714,0.170792,1.206495,0.00743,29.294527,-30.950919,-19.862736
1305397830867180,-9.497769,1.648632,-1.936925,0.263327,0.036846,-0.014989,48.398525,12.572765,13.470944,-9.588553,-0.793482,-1.84372,0.017891,0.019604,-0.030087,45.666859,-30.505232,12.532543,-9.629973,-0.268879,-1.72908,0.062841,-0.004021,-0.018549,34.82551,-1.750877,-49.325138,-9.554948,-1.131337,-1.378694,0.195841,0.214434,-0.007909,37.203083,-62.379715,-31.391176,-8.616404,-0.039854,-4.551127,0.227809,0.108586,-0.033424,19.480814,-47.765401,-81.952648,-9.639985,0.314365,-1.444383,-0.050137,0.202416,0.028039,28.861987,-23.466045,-48.907852,-8.693014,0.036427,4.494726,0.17616,1.201528,-0.010511,37.03129,-22.47229,-26.59936
1305397830875000,-9.495647,1.664203,-1.927922,0.267975,0.031616,-0.014941,47.918555,12.575746,13.462941,-9.594965,-0.811063,-1.836886,0.011551,0.016444,-0.020534,45.660417,-30.988011,12.558371,-9.608961,-0.270825,-1.726697,0.061084,-0.007368,-0.006399,35.635659,-0.661769,-47.631328,-9.562265,-1.138436,-1.37869,0.1978,0.213164,0.009947,38.067235,-61.32073,-29.794612,-8.626007,-0.053909,-4.558123,0.226236,0.108486,-0.027352,18.854174,-47.764545,-81.976489,-9.623942,0.300667,-1.250042,-0.042875,0.200377,0.016255,24.139162,-23.411506,-51.497455,-8.702131,0.052468,4.482972,0.170856,1.198449,0.001408,41.628124,-27.809679,-22.28885
1305397830882810,-9.482347,1.681686,-1.905621,0.271328,0.02673,-0.016429,47.919559,12.086169,13.484682,-9.592609,-0.819938,-1.832332,0.016324,0.025783,-0.031622,45.666859,-30.505232,12.532543,-9.590315,-0.272834,-1.74077,0.059587,-0.007168,-0.018517,34.787093,-2.74855,-47.669379,-9.562477,-1.15005,-1.378693,0.191207,0.206572,0.010016,36.451512,-60.308094,-31.680437,-8.609499,-0.046685,-4.523133,0.229519,0.103539,-0.027315,17.576134,-49.471443,-82.770766,-9.57183,0.301578,-1.505309,-0.055075,0.211973,0.057893,24.336623,-25.848194,-51.818819,-8.676045,0.073655,4.475884,0.170228,1.202263,0.02533,36.805767,-21.521102,-14.44725
1305397830890620,-9.483088,1.730268,-1.876577,0.271435,0.03151,-0.019598,47.919559,12.086169,13.484682,-9.579324,-0.815728,-1.825526,0.016306,0.01648,-0.025326,45.666859,-30.505232,12.532543,-9.589756,-0.244828,-1.710182,0.051642,0.001073,-0.018502,34.793953,-2.766637,-48.508404,-9.5579,-1.161574,-1.373987,0.200606,0.210942,-0.025912,37.226331,-62.376081,-30.539689,-8.595327,-0.03716,-4.560445,0.224716,0.101748,-0.021197,20.140312,-51.986116,-81.305136,-9.574255,0.299132,-1.41632,-0.042671,0.202009,0.051949,26.546014,-23.279838,-48.994493,-8.755771,0.070173,4.511289,0.169256,1.188742,-0.004627,39.099246,-27.507961,-17.382863
1305397830898430,-9.489954,1.734791,-1.867646,0.273091,0.033204,-0.019592,48.402271,12.082987,13.493522,-9.586092,-0.809038,-1.800565,0.022726,0.016386,-0.017342,45.660417,-30.988011,12.558371,-9.5892,-0.216825,-1.681944,0.053081,-0.013462,-0.018453,33.994783,-2.785724,-48.50187,-9.550676,-1.159118,-1.364564,0.204142,0.20959,-0.01405,36.47476,-60.30446,-30.82895,-8.590779,-0.044019,-4.567437,0.22791,0.101863,-0.027282,19.454896,-48.627088,-82.681681,-9.580878,0.332073,-1.357792,-0.04423,0.207685,0.02236,28.178723,-16.473855,-50.360083,-8.804392,0.108748,4.51842,0.167027,1.195621,0.019308,39.194393,-24.570272,-17.152839
1305397830906250,-9.496476,1.717224,-1.878807,0.271545,0.03793,-0.022779,48.401267,12.572565,13.471781,-9.590283,-0.82662,-1.816432,0.014784,0.025692,-0.022039,45.666859,-30.505232,12.532543,-9.598216,-0.196049,-1.705436,0.05007,-0.009921,-0.036638,35.593122,-2.747549,-48.514938,-9.538869,-1.168187,-1.357507,0.205683,0.204533,-0.026042,38.043987,-61.324364,-30.646099,-8.618708,-0.037575,-4.565122,0.222899,0.102069,-0.045422,18.802338,-49.487918,-83.434556,-9.635419,0.321824,-1.374164,-0.040747,0.218429,0.022715,28.482766,-21.665106,-53.419132,-8.771393,0.120786,4.49249,0.150581,1.193186,0.019255,39.429793,-18.88513,-19.123214
1305397830914060,-9.51472,1.726319,-1.874316,0.27479,0.028264,-0.021099,48.401267,12.572565,13.471781,-9.586118,-0.820211,-1.82325,0.01634,0.013619,-0.023595,45.663825,-30.502975,12.531853,-9.61177,-0.173152,-1.695846,0.05813,-0.008324,-0.036692,35.61782,-1.713702,-48.492646,-9.531762,-1.172702,-1.359872,0.212823,0.211777,0.00968,37.24714,-60.29749,-31.654957,-8.616618,-0.051424,-4.565116,0.223196,0.095011,-0.015042,19.483127,-49.45925,-81.987769,-9.621708,0.288972,-1.404593,-0.047228,0.209442,0.05205,23.957402,-24.047255,-56.330099,-8.79016,0.120514,4.513698,0.162331,1.187153,0.007298,36.946019,-18.77365,-16.647649
1305397830921870,-9.514351,1.70203,-1.887724,0.274794,0.031546,-0.021125,48.395636,12.088957,14.003631,-9.572931,-0.809378,-1.814183,0.024399,0.027443,-0.02186,45.657383,-30.985731,12.557679,-9.623485,-0.173379,-1.707617,0.046521,-0.014913,-0.006282,34.793953,-2.766637,-48.508404,-9.524149,-1.149344,-1.359871,0.214,0.206285,-0.026173,37.223892,-60.301124,-32.506445,-8.605051,-0.058162,-4.562775,0.227995,0.103355,-0.015183,18.827099,-47.779308,-82.687962,-9.612248,0.28911,-1.399912,-0.048861,0.207868,0.051974,29.07515,-28.975171,-54.383222,-8.82571,0.092252,4.513734,0.158429,1.187479,-0.02856,39.094308,-30.826126,-22.47373
1305397830929680,-9.514031,1.682136,-1.914502,0.288022,0.028693,-0.020947,48.402271,12.082987,13.493522,-9.57074,-0.807185,-1.825536,0.018024,0.029014,-0.02344,46.15307,-30.508838,12.533692,-9.645081,-0.204056,-1.705341,0.043362,-0.005254,-0.000238,35.61782,-1.713702,-48.492646,-9.526197,-1.130809,-1.369292,0.212732,0.211668,0.003715,38.840834,-62.351238,-29.637241,-8.6167,-0.056055,-4.565114,0.227888,0.098629,-0.0333,18.854174,-47.764545,-81.976489,-9.59788,0.301135,-1.399922,-0.043783,0.220655,0.040534,30.90532,-24.605876,-56.070176,-8.807174,0.078658,4.513707,0.158753,1.17769,0.013209,41.58302,-27.619441,-19.858428
1305397830937500,-9.518353,1.668948,-1.92566,0.292977,0.023932,-0.020851,47.918555,12.575746,13.462941,-9.579708,-0.802613,-1.841435,0.022814,0.025876,-0.018681,45.663825,-30.502975,12.531853,-9.662102,-0.237023,-1.738313,0.024237,0.00494,-0.006227,33.994783,-2.785724,-48.50187,-9.540441,-1.124106,-1.378705,0.209219,0.20318,-0.014179,38.020739,-61.327998,-31.497587,-8.607357,-0.055883,-4.579103,0.226383,0.108234,-0.009173,18.855331,-48.611469,-81.99405,-9.604654,0.322307,-1.423349,-0.047381,0.20313,0.057822,26.455134,-23.597713,-51.410814,-8.772086,0.07687,4.527788,0.162354,1.163182,-0.004792,39.239498,-24.760509,-19.583261
1305397830945310,-9.529697,1.671311,-1.932332,0.298039,0.022309,-0.023911,47.918555,12.575746,13.462941,-9.588544,-0.806883,-1.852781,0.027532,0.018197,-0.021954,45.657383,-30.985731,12.557679,-9.67045,-0.309413,-1.750167,0.032349,-0.003057,-0.024433,35.568424,-3.781395,-48.537231,-9.551382,-1.068588,-1.404606,0.208775,0.217452,-0.031976,38.817586,-62.354872,-30.488729,-8.614276,-0.051385,-4.558118,0.231186,0.110024,-0.015292,18.855331,-48.611469,-81.99405,-9.621214,0.322057,-1.41632,-0.034248,0.217007,0.064402,29.150328,-25.584859,-46.812893,-8.739501,0.063485,4.532453,0.170356,1.173398,0.007236,39.429793,-18.88513,-19.123214
1305397830953120,-9.529586,1.662505,-1.916739,0.296087,0.027606,-0.014579,48.401267,12.572565,13.471781,-9.591261,-0.773709,-1.859639,0.022805,0.025891,-0.020278,45.663825,-30.502975,12.531853,-9.650136,-0.350964,-1.736083,0.043046,-0.008883,0.030093,34.019481,-1.751878,-48.479578,-9.546297,-1.05224,-1.399892,0.195366,0.215513,-0.037725,38.817586,-62.354872,-30.488729,-8.628263,-0.04932,-4.560459,0.221495,0.104952,-0.015153,18.228692,-48.610613,-82.017891,-9.627946,0.345606,-1.465507,-0.03792,0.192233,0.111203,26.455134,-23.597713,-51.410814,-8.697206,0.073359,4.539466,0.165093,1.173471,0.019175,34.412203,-21.790097,-16.832529
1305397830960930,-9.513784,1.664496,-1.905607,0.304462,0.031013,-0.01764,47.918555,12.575746,13.462941,-9.59126,-0.773718,-1.852829,0.024345,0.022871,-0.026698,45.663825,-30.502975,12.531853,-9.634351,-0.383293,-1.733746,0.04826,-0.008425,-0.012381,35.61782,-1.713702,-48.492646,-9.562948,-1.045578,-1.397517,0.200641,0.215917,-0.019914,37.99993,-63.406589,-30.382318,-8.642405,-0.056521,-4.544138,0.221229,0.102138,-0.051469,18.828256,-48.626232,-82.705523,-9.644832,0.324073,-1.423339,-0.039419,0.20738,0.034335,30.798738,-21.851313,-53.332491,-8.657407,0.071635,4.532356,0.159486,1.181757,-0.010666,41.442768,-30.366893,-17.65803
1305397830968750,-9.511503,1.662273,-1.892237,0.315778,0.025181,-0.009631,47.918555,12.575746,13.462941,-9.591162,-0.780338,-1.85736,0.022715,0.019827,-0.029923,45.663825,-30.502975,12.531853,-9.652908,-0.37662,-1.717317,0.059384,-0.015211,-0.006358,36.399151,-2.746548,-49.360498,-9.584497,-1.045978,-1.418711,0.193881,0.215704,-0.025766,37.997491,-61.331632,-32.349074,-8.623745,-0.058502,-4.546459,0.237737,0.101789,-0.01524,18.882406,-48.596707,-81.282577,-9.654259,0.326295,-1.423338,-0.034389,0.21666,0.034684,26.439433,-20.525275,-46.256808,-8.612424,0.104661,4.537018,0.159997,1.186152,0.031187,36.705681,-27.776956,-19.768142
1305397830976560,-9.516074,1.664558,-1.883312,0.304247,0.021453,-0.011303,47.92519,12.569776,12.952832,-9.599602,-0.811146,-1.845966,0.024308,0.010489,-0.020433,45.663825,-30.502975,12.531853,-9.629128,-0.357512,-1.686702,0.057588,-0.026531,-0.000239,34.800812,-2.784724,-49.34743,-9.580171,-1.07144,-1.418723,0.198958,0.209294,-0.025895,38.020739,-61.327998,-31.497587,-8.607256,-0.051265,-4.546452,0.236197,0.109818,0.002849,19.483127,-49.45925,-81.987769,-9.651823,0.331056,-1.423341,-0.036093,0.209825,0.052292,29.043747,-22.830296,-44.075208,-8.588784,0.118877,4.529932,0.168419,1.189569,0.025251,31.918552,-28.314947,-24.538699
1305397830984370,-9.513852,1.666743,-1.874394,0.292675,0.026,-0.011475,48.408905,12.077017,12.983413,-9.595087,-0.815626,-1.848229,0.017915,0.013647,-0.02679,45.666722,-30.510325,12.047544,-9.607125,-0.303541,-1.698349,0.064356,-0.01669,-0.02457,34.843349,-0.698944,-48.46382,-9.574022,-1.127046,-1.392818,0.199106,0.204537,-0.019963,38.816366,-61.317394,-31.472107,-8.611808,-0.044403,-4.546458,0.241022,0.114843,0.002749,18.228692,-48.610613,-82.017891,-9.654221,0.328663,-1.432706,-0.025084,0.207637,0.040582,26.850057,-28.471089,-52.053541,-8.602942,0.111734,4.529947,0.174832,1.199536,-0.022476,34.407264,-25.108262,-21.923397
1305397830992180,-9.522843,1.662462,-1.874389,0.286366,0.026999,-0.020953,47.92519,12.569776,12.952832,-9.591027,-0.789209,-1.832376,0.022697,0.01208,-0.025209,45.663825,-30.502975,12.531853,-9.615627,-0.257093,-1.693606,0.077032,-0.018844,-0.006449,34.818651,-1.73279,-48.486112,-9.555198,-1.145274,-1.383413,0.198023,0.201918,0.015835,37.270388,-60.293855,-30.80347,-8.611979,-0.051283,-4.541786,0.245623,0.115548,-0.045768,19.509045,-48.597563,-81.258735,-9.639999,0.331225,-1.411636,-0.020281,0.203356,0.076217,33.493932,-23.83846,-48.73457,-8.60323,0.093242,4.541712,0.158563,1.201826,0.031275,39.334645,-21.82282,-19.353237
1305397831000000,-9.514025,1.679959,-1.892211,0.266275,0.034916,-0.013421,48.401267,12.572565,13.471781,-9.588735,-0.793673,-1.823288,0.021103,0.01364,-0.02679,45.657383,-30.985731,12.557679,-9.636344,-0.238833,-1.695968,0.076865,-0.019088,0.011742,35.649378,-0.697943,-49.309379,-9.53393,-1.161138,-1.378723,0.195951,0.212921,-0.001955,38.088043,-59.242138,-30.90988,-8.583557,-0.029944,-4.548775,0.231237,0.113412,-0.021393,19.507889,-47.750639,-81.241175,-9.644558,0.342962,-1.399932,-0.026765,0.202556,0.052296,33.296471,-21.401771,-48.413206,-8.622258,0.074488,4.534737,0.161268,1.205693,-0.004547,36.700743,-31.095121,-24.859009
1305397831007810,-9.502304,1.653298,-1.905635,0.246571,0.027495,-0.018292,48.408905,12.077017,12.983413,-9.581666,-0.820293,-1.811899,0.022715,0.01516,-0.025178,45.666722,-30.510325,12.047544,-9.628593,-0.196776,-1.712355,0.073966,-0.015385,-0.01857,35.582143,-3.817569,-50.215282,-9.512329,-1.158418,-1.366957,0.205737,0.207885,-0.020054,38.794338,-62.358506,-31.340216,-8.583553,-0.029946,-4.541778,0.231153,0.111921,-0.033492,18.908324,-47.73502,-80.553543,-9.637496,0.340707,-1.404616,-0.026765,0.202556,0.052296,33.312172,-24.474209,-53.567213,-8.645889,0.06027,4.534761,0.161749,1.216394,-0.016434,37.131375,-16.216436,-21.278469
1305397831015620,-9.504555,1.653316,-1.916779,0.258212,0.037644,-0.019801,48.401267,12.572565,13.471781,-9.57725,-0.81814,-1.818711,0.024317,0.013585,-0.022,45.670266,-30.020219,12.506027,-9.628171,-0.17347,-1.712326,0.060991,-0.02,-0.012411,35.606841,-2.783723,-50.19299,-9.505114,-1.155959,-1.348106,0.208411,0.217018,-0.055836,38.042767,-60.286885,-31.629477,-8.611649,-0.032762,-4.541793,0.234295,0.118674,-0.03966,18.855331,-48.611469,-81.99405,-9.635411,0.321839,-1.402265,-0.03308,0.205845,0.040368,28.861987,-23.466045,-48.907852,-8.678783,0.052847,4.530091,0.160514,1.212823,0.025368,34.457307,-21.980335,-19.262951
1305397831023430,-9.491275,1.675163,-1.932371,0.259963,0.034274,-0.022886,47.918555,12.575746,13.462941,-9.552876,-0.811863,-1.827797,0.022751,0.019764,-0.023534,45.663825,-30.502975,12.531853,-9.604854,-0.177697,-1.705241,0.059495,-0.015049,-0.018485,35.575284,-3.799482,-49.376256,-9.495599,-1.160433,-1.362258,0.210776,0.204719,-0.020162,38.021958,-62.365476,-30.514209,-8.597624,-0.03251,-4.546449,0.236111,0.118353,-0.015434,18.882406,-48.596707,-81.282577,-9.602541,0.305789,-1.397582,-0.029832,0.209227,0.034584,24.048282,-23.72938,-53.913777,-8.686173,0.02731,4.518324,0.170621,1.206704,0.013406,34.317055,-24.727787,-17.062553
1305397831031250,-9.488966,1.672909,-1.943523,0.25991,0.032704,-0.021309,48.402271,12.082987,13.493522,-9.55291,-0.809648,-1.83234,0.024354,0.016633,-0.018774,45.657383,-30.985731,12.557679,-9.602828,-0.191683,-1.740508,0.054635,-0.008656,-0.006355,36.41699,-1.694614,-48.49918,-9.490579,-1.148737,-1.378759,0.205809,0.209616,-0.014078,37.225112,-61.338602,-31.523067,-8.586229,-0.048504,-4.555766,0.231292,0.124776,-0.003359,18.854174,-47.764545,-81.976489,-9.567018,0.308691,-1.421011,-0.041006,0.209313,0.02247,26.561716,-26.352276,-54.1485,-8.693035,0.038766,4.523043,0.164667,1.205862,0.049238,39.194393,-24.570272,-17.152839
1305397831039060,-9.477821,1.683792,-1.932375,0.273247,0.036272,-0.024312,48.393629,13.068113,13.960148,-9.548463,-0.809694,-1.84596,0.022751,0.016652,-0.020371,46.639417,-30.50735,13.019839,-9.631212,-0.208521,-1.752327,0.049646,0.000714,0.023952,37.191461,-2.709373,-48.528006,-9.502178,-1.128052,-1.381099,0.205551,0.215887,-0.025965,37.226331,-62.376081,-30.539689,-8.600051,-0.037178,-4.55811,0.236151,0.113375,-0.015372,18.198147,-46.084603,-82.676683,-9.564614,0.311093,-1.43038,-0.033014,0.209118,0.034515,35.809905,-24.024667,-48.647929,-8.702457,0.034,4.508929,0.163485,1.214902,0.037337,44.016751,-30.858848,-24.994439
1305397831046870,-9.473076,1.668289,-1.925713,0.269729,0.029887,-0.018039,48.393629,13.068113,13.960148,-9.555367,-0.794124,-1.852794,0.022805,0.024336,-0.018696,46.642315,-30.5147,12.53553,-9.627061,-0.236419,-1.764105,0.051215,-0.007296,0.017912,34.82551,-1.750877,-49.325138,-9.511419,-1.109648,-1.388156,0.20936,0.21486,0.003794,38.817586,-62.354872,-30.488729,-8.593122,-0.041682,-4.560437,0.239283,0.115233,-0.027538,19.480814,-47.765401,-81.952648,-9.557794,0.292306,-1.446764,-0.034608,0.207075,0.04631,35.505863,-18.833416,-45.58888,-8.718716,0.043004,4.506598,0.166531,1.20562,-0.016485,34.36216,-24.918024,-19.492975
1305397831054680,-9.48411,1.646429,-1.894518,0.272982,0.026784,-0.01641,48.393629,13.068113,13.960148,-9.559981,-0.783015,-1.852811,0.017978,0.013537,-0.015609,46.642315,-30.5147,12.53553,-9.594882,-0.270733,-1.72414,0.041437,-0.013596,0.024058,34.82551,-1.750877,-49.325138,-9.552091,-1.110447,-1.390444,0.205717,0.217527,-0.014024,38.817586,-62.354872,-30.488729,-8.613908,-0.028171,-4.548792,0.232712,0.11368,-0.039585,19.480814,-47.765401,-81.952648,-9.560057,0.299352,-1.435058,-0.02966,0.215304,0.034747,35.505863,-18.833416,-45.58888,-8.732774,0.042797,4.508968,0.163968,1.200056,0.013352,34.36216,-24.918024,-19.492975
1305397831062500,-9.495358,1.651198,-1.901094,0.291116,0.031157,-0.027259,47.788495,12.575135,13.593471,-9.562238,-0.780773,-1.852814,0.02439,0.022792,-0.018712,46.0485,-30.288047,12.277911,-9.581086,-0.28445,-1.714733,0.031058,0.00536,-0.048711,35.273727,-4.057354,-49.283991,-9.527737,-1.089107,-1.397532,0.202568,0.209474,-0.008057,38.316129,-61.318706,-31.038869,-8.59987,-0.027927,-4.530126,0.229726,0.111569,-0.009241,20.281788,-47.187057,-81.521756,-9.557099,0.327508,-1.435104,-0.024441,0.214588,0.052661,27.19158,-22.796167,-52.59954,-8.725769,0.042906,4.527792,0.165548,1.195414,0.013328,34.873595,-19.309002,-20.319103
1305397831070310,-9.486294,1.648886,-1.881043,0.281144,0.032548,-0.025821,47.930087,12.370291,13.454448,-9.566721,-0.778498,-1.852818,0.021139,0.016688,-0.023565,46.114127,-30.679259,12.656739,-9.60002,-0.29875,-1.695981,0.040779,0.002077,-0.060882,35.632603,-3.322207,-48.481517,-9.503655,-1.081698,-1.385766,0.202622,0.212826,-0.00207,38.442681,-60.297496,-30.625667,-8.609512,-0.044299,-4.532458,0.234357,0.11693,-0.033579,20.024951,-49.316235,-82.234106,-9.573691,0.324902,-1.439782,-0.034063,0.215198,0.028711,31.324492,-25.069374,-47.941011,-8.720981,0.049911,4.527788,0.165883,1.195084,0.001377,31.157473,-18.012196,-15.22432
1305397831078120,-9.482147,1.675293,-1.885472,0.276281,0.030604,-0.028995,47.741244,12.694848,13.398162,-9.55301,-0.803002,-1.845971,0.016376,0.016668,-0.02037,45.477631,-30.844671,12.257325,-9.616262,-0.292052,-1.69365,0.043435,-0.013064,-0.018397,36.737414,-1.259605,-49.701397,-9.504161,-1.109571,-1.388131,0.205808,0.217636,-0.008059,37.899577,-60.908574,-30.554036,-8.597734,-0.039465,-4.520792,0.239345,0.11349,-0.021457,18.988287,-45.446083,-81.287525,-9.604268,0.336258,-1.437438,-0.030756,0.217877,0.040733,29.626269,-25.430086,-53.42179,-8.669769,0.027551,4.513596,0.171009,1.18887,0.049154,42.963881,-25.553446,-20.481178
1305397831085930,-9.48423,1.66427,-1.903319,0.267965,0.033688,-0.027551,47.966572,12.685557,13.379542,-9.553043,-0.80079,-1.848244,0.021166,0.018196,-0.020355,46.129618,-30.755009,12.234781,-9.595042,-0.282348,-1.693602,0.057962,-0.013319,-0.024546,34.915855,-1.241242,-47.106109,-9.513879,-1.116712,-1.38341,0.202421,0.214231,-0.01399,38.490871,-60.729306,-29.653937,-8.586091,-0.041568,-4.530113,0.224754,0.106796,-0.027319,20.064247,-47.88991,-82.610545,-9.625667,0.328844,-1.418694,-0.034106,0.213678,0.02867,31.747134,-22.4804,-48.117665,-8.655246,0.060128,4.523003,0.166176,1.191601,-0.010593,40.449809,-22.829636,-22.604919
1305397831093750,-9.484091,1.655432,-1.912248,0.266319,0.040198,-0.027622,48.425125,12.681801,13.385801,-9.555365,-0.794141,-1.841443,0.016358,0.016699,-0.023564,45.600344,-31.215022,12.740613,-9.592276,-0.258996,-1.691219,0.057775,-0.019925,-0.012392,36.508866,-1.239026,-48.791105,-9.511742,-1.130603,-1.378702,0.203978,0.215771,-0.019972,37.582081,-61.776414,-32.099815,-8.583833,-0.046159,-4.525446,0.235988,0.12184,-0.027595,19.428018,-49.570854,-82.659645,-9.628109,0.324072,-1.397615,-0.030901,0.215541,0.022845,32.109492,-24.275374,-43.600418,-8.601351,0.060923,4.511168,0.1674,1.185713,0.001326,35.692453,-20.234518,-24.712069
1305397831101560,-9.490647,1.640073,-1.921177,0.249573,0.036665,-0.021526,47.942376,12.684983,13.37696,-9.559775,-0.796292,-1.832361,0.021165,0.024412,-0.026687,45.606875,-30.732333,12.714807,-9.597012,-0.266447,-1.702704,0.054527,-0.013195,-0.000274,36.491027,-2.290959,-49.652423,-9.526032,-1.126222,-1.383402,0.198813,0.213853,-0.031828,39.24186,-60.706824,-30.47777,-8.574453,-0.043669,-4.546432,0.227925,0.128232,-0.015494,20.080576,-48.710024,-81.90677,-9.635026,0.33579,-1.414011,-0.043838,0.209496,0.010534,29.232538,-22.923977,-53.030983,-8.575557,0.061299,4.489952,0.174199,1.203393,0.001445,38.086018,-19.965523,-22.32679
1305397831109370,-9.488432,1.644436,-1.93455,0.249727,0.038092,-0.026234,47.459627,12.688164,13.36812,-9.571162,-0.778447,-1.839198,0.017914,0.007418,-0.020468,45.609773,-30.739683,12.230497,-9.59692,-0.26178,-1.697998,0.05346,0.000299,-0.042762,35.716556,-1.276201,-49.623596,-9.501742,-1.107198,-1.366919,0.20929,0.212931,-0.002184,36.856197,-61.776115,-29.570832,-8.581501,-0.046113,-4.534774,0.240963,0.120059,-0.015493,19.453936,-48.709167,-81.930612,-9.637601,0.321579,-1.416345,-0.036053,0.20568,-0.001286,25.268155,-26.471316,-46.598027,-8.58248,0.06813,4.487608,0.165358,1.206777,0.025344,40.479582,-19.696528,-19.941511
1305397831117180,-9.486297,1.653229,-1.934541,0.254527,0.030263,-0.021418,47.94338,12.195365,13.398704,-9.573322,-0.782832,-1.839192,0.021138,0.015125,-0.021988,46.099019,-30.745546,12.232336,-9.613567,-0.276076,-1.709794,0.048265,-0.003299,-0.006338,34.892688,-2.329135,-49.639355,-9.513524,-1.0958,-1.355119,0.196195,0.199854,0.003921,38.424204,-61.758541,-30.37136,-8.583884,-0.048468,-4.541771,0.239062,0.118889,-0.051817,18.829611,-50.402159,-81.989574,-9.642263,0.326232,-1.411663,-0.039199,0.203114,0.022345,29.429999,-25.360666,-53.352346,-8.598692,0.081763,4.504109,0.179545,1.209624,-0.010456,37.945766,-22.712975,-20.126392
1305397831125000,-9.50636,1.631472,-1.925629,0.259638,0.028569,-0.026043,47.460631,12.198547,13.389863,-9.586607,-0.787039,-1.848269,0.024316,0.010466,-0.018841,46.10546,-30.262789,12.20651,-9.628236,-0.308991,-1.735711,0.048302,-0.000077,-0.006351,36.508866,-1.239026,-48.791105,-9.542174,-1.091687,-1.381019,0.209095,0.197898,-0.026144,38.378928,-62.803288,-31.090957,-8.579293,-0.053013,-4.546431,0.230885,0.133663,-0.04588,18.257121,-50.371778,-80.59047,-9.663483,0.330639,-1.406976,-0.054997,0.197185,0.081271,32.125193,-27.347812,-48.754425,-8.633592,0.097425,4.504155,0.175579,1.217996,-0.040292,38.040913,-19.775286,-19.896368
1305397831132810,-9.510536,1.607269,-1.923426,0.26915,0.024539,-0.013371,48.419494,12.198154,13.917694,-9.59073,-0.809061,-1.848238,0.022686,0.012089,-0.026811,45.606875,-30.732333,12.714807,-9.626359,-0.334582,-1.733389,0.056284,-0.009848,-0.012423,35.709696,-1.258114,-48.784571,-9.556342,-1.080336,-1.381003,0.206176,0.209852,0.009781,39.219831,-61.747937,-30.34588,-8.583766,-0.041518,-4.553435,0.237384,0.132065,-0.04591,18.829611,-50.402159,-81.989574,-9.649364,0.326118,-1.395268,-0.048685,0.202083,0.039943,31.351049,-20.673496,-52.622978,-8.656724,0.115569,4.48771,0.177397,1.235581,0.019565,32.978218,-22.490015,-15.175262
1305397831140620,-9.515269,1.618417,-1.885508,0.272353,0.021507,-0.010177,47.94338,12.195365,13.398704,-9.601985,-0.800067,-1.843712,0.024389,0.024341,-0.020299,45.606875,-30.732333,12.714807,-9.608114,-0.36218,-1.709891,0.059871,-0.010964,-0.054882,36.484168,-2.272872,-48.813397,-9.561615,-1.105969,-1.366863,0.20444,0.199876,-0.002187,38.446232,-60.717428,-30.50325,-8.609315,-0.032718,-4.548788,0.239348,0.131492,-0.003506,19.482168,-49.541329,-81.236699,-9.674962,0.354089,-1.402302,-0.074072,0.202493,0.045365,29.323418,-22.606103,-50.614661,-8.715024,0.133199,4.494848,0.177691,1.232098,0.007596,35.742496,-17.106591,-22.051623
1305397831148430,-9.526588,1.618582,-1.885495,0.282487,0.028107,-0.016374,47.942376,12.684983,13.37696,-9.595668,-0.775883,-1.834666,0.024352,0.01507,-0.017197,45.613316,-30.249576,12.688981,-9.631746,-0.376579,-1.702898,0.059407,-0.013225,-0.006366,34.903667,-1.259115,-47.939011,-9.557296,-1.131428,-1.357446,0.209385,0.204821,-0.002239,38.422985,-60.721062,-31.354738,-8.613864,-0.025857,-4.544129,0.232923,0.129686,0.002626,18.827297,-48.708311,-81.954453,-9.658864,0.32361,-1.385897,-0.060341,0.181481,0.051041,33.971064,-26.050955,-55.595386,-8.766558,0.132436,4.492556,0.174532,1.228609,0.001593,30.584654,-22.75901,-17.56054
1305397831156250,-9.526808,1.634022,-1.889933,0.269098,0.022969,-0.011793,48.426129,12.192184,13.407544,-9.591186,-0.778154,-1.836932,0.022732,0.016677,-0.02357,45.609773,-30.739683,12.230497,-9.638636,-0.369715,-1.702901,0.057761,-0.01641,-0.006343,35.684998,-2.29196,-48.806863,-9.535859,-1.138001,-1.352754,0.209202,0.204603,-0.014169,37.583301,-62.813892,-31.116437,-8.590575,-0.030066,-4.555775,0.226202,0.134939,-0.021623,19.482168,-49.541329,-81.236699,-9.651558,0.337889,-1.381223,-0.053951,0.185441,0.033455,31.426228,-17.283184,-45.05265,-8.790227,0.115906,4.494934,0.171373,1.22512,-0.00441,35.552201,-22.98197,-22.511671
1305397831164060,-9.529163,1.640669,-1.894381,0.27075,0.021382,-0.011761,47.935741,12.690953,13.887111,-9.588565,-0.804725,-1.814192,0.024253,0.00591,-0.025276,46.096121,-30.738195,12.716645,-9.649795,-0.341939,-1.686434,0.060886,-0.005534,0.017847,35.6603,-3.325807,-48.829156,-9.538374,-1.145016,-1.362182,0.209089,0.214335,-0.014103,38.445013,-59.67995,-31.486628,-8.602348,-0.034904,-4.558113,0.237456,0.135216,-0.033832,18.829611,-50.402159,-81.989574,-9.646864,0.335592,-1.374198,-0.055721,0.185508,-0.008169,31.912031,-21.838686,-43.279055,-8.815859,0.124772,4.494967,0.164217,1.218968,0.013462,35.552201,-22.98197,-22.511671
1305397831171870,-9.531634,1.656127,-1.909963,0.257676,0.025662,-0.016647,47.94338,12.195365,13.398704,-9.59079,-0.804685,-1.818733,0.027531,0.016634,-0.020377,46.089679,-31.220952,12.742472,-9.644415,-0.302246,-1.695777,0.064379,-0.014704,-0.024579,35.635602,-4.359653,-48.851448,-9.533719,-1.151893,-1.350403,0.217667,0.201598,-0.008368,40.037487,-60.69622,-30.45229,-8.606828,-0.023404,-4.57911,0.232689,0.135001,-0.021675,18.855529,-49.540472,-81.260541,-9.635313,0.316875,-1.390584,-0.055561,0.185621,0.027485,20.166108,-24.615837,-53.69891,-8.830031,0.117631,4.506752,0.165788,1.209435,-0.04634,37.755471,-28.588354,-20.586439
1305397831179680,-9.522301,1.63832,-1.927831,0.246048,0.025358,-0.015215,47.942376,12.684983,13.37696,-9.593146,-0.795814,-1.821016,0.025865,0.010542,-0.026827,46.089679,-31.220952,12.742472,-9.65318,-0.267489,-1.721601,0.052956,-0.014687,-0.006321,36.45947,-3.306719,-48.83569,-9.54287,-1.128845,-1.362173,0.218988,0.199568,-0.032268,37.651825,-61.765511,-29.545352,-8.588116,-0.032561,-4.567331,0.233845,0.133492,-0.027724,18.827297,-48.708311,-81.954453,-9.599857,0.315055,-1.421035,-0.050867,0.186722,0.003847,31.54851,-23.110184,-52.944342,-8.8231,0.110799,4.502034,0.161792,1.206773,-0.022465,38.131122,-20.155761,-24.757212
1305397831187500,-9.511432,1.669047,-1.927804,0.244244,0.027159,-0.010552,48.425125,12.681801,13.385801,-9.591216,-0.775965,-1.823314,0.022741,0.019773,-0.025136,46.096121,-30.738195,12.716645,-9.647918,-0.234782,-1.726252,0.052789,-0.014931,0.01187,35.691858,-2.310047,-49.645889,-9.556913,-1.110525,-1.359797,0.220391,0.222302,-0.032143,37.651825,-61.765511,-29.545352,-8.583394,-0.030166,-4.558,0.232273,0.133393,-0.021651,18.828454,-49.555235,-81.972014,-9.579021,0.284659,-1.42805,-0.056802,0.199708,0.015947,29.505178,-21.970354,-45.782018,-8.818629,0.099349,4.50211,0.151531,1.201948,-0.010567,30.629758,-22.949248,-19.990962
1305397831195310,-9.507054,1.680002,-1.936712,0.249305,0.025536,-0.013612,47.942376,12.684983,13.37696,-9.593342,-0.782565,-1.818765,0.024316,0.016689,-0.025168,46.089679,-31.220952,12.742472,-9.612986,-0.238857,-1.766152,0.05464,-0.008281,-0.006357,36.497887,-2.309046,-50.491448,-9.551562,-1.080245,-1.366864,0.210992,0.217932,0.003786,38.446232,-60.717428,-30.50325,-8.585489,-0.016313,-4.567336,0.23714,0.151442,-0.003738,19.482168,-49.541329,-81.236699,-9.567224,0.282481,-1.444444,-0.058311,0.200704,0.027824,34.137123,-22.342768,-45.608735,-8.804719,0.090312,4.509152,0.155306,1.204939,0.031285,37.945766,-22.712975,-20.126392
1305397831203120,-9.506784,1.662335,-1.947882,0.266053,0.03071,-0.01972,47.942376,12.684983,13.37696,-9.590987,-0.791426,-1.823292,0.022731,0.013566,-0.020407,46.089679,-31.220952,12.742472,-9.620206,-0.250632,-1.761478,0.057928,-0.016166,-0.024534,36.473189,-3.342893,-50.513741,-9.560599,-1.050224,-1.364489,0.206173,0.218071,0.015802,36.83173,-60.742271,-31.405698,-8.597584,-0.039678,-4.55334,0.233532,0.148764,-0.052148,18.228889,-49.539616,-81.284382,-9.576545,0.291793,-1.446788,-0.053418,0.20145,0.05171,29.125957,-20.169414,-50.293298,-8.797942,0.074235,4.518556,0.158018,1.195987,-0.010587,35.507096,-22.791733,-20.081249
1305397831210930,-9.493471,1.679804,-1.936728,0.271068,0.03244,-0.021241,47.942376,12.684983,13.37696,-9.593282,-0.786943,-1.846,0.030619,0.005911,-0.026875,46.089679,-31.220952,12.742472,-9.622652,-0.257651,-1.74974,0.059333,-0.005415,0.011793,36.484168,-2.272872,-48.813397,-9.540934,-1.024333,-1.392785,0.207347,0.220798,-0.014031,36.878226,-60.735002,-29.702723,-8.597629,-0.041991,-4.560336,0.233669,0.143618,-0.039967,19.45625,-50.403015,-81.965733,-9.611891,0.300709,-1.432733,-0.054964,0.213089,-0.013369,26.703403,-17.228644,-47.642253,-8.767531,0.072376,4.52558,0.166126,1.188537,-0.010611,38.090956,-16.647358,-17.235923
1305397831218750,-9.493264,1.664378,-1.921143,0.277528,0.029587,-0.016444,47.94338,12.195365,13.398704,-9.582387,-0.771643,-1.84829,0.025865,0.015209,-0.031572,46.096121,-30.738195,12.716645,-9.625372,-0.278669,-1.74977,0.060773,-0.010448,0.02393,36.45947,-3.306719,-48.83569,-9.541451,-1.052202,-1.383365,0.207438,0.220906,-0.008066,38.446232,-60.717428,-30.50325,-8.590821,-0.053443,-4.557996,0.230661,0.138271,-0.015641,19.482168,-49.541329,-81.236699,-9.647106,0.319061,-1.38824,-0.055016,0.207594,0.01025,29.9001,-26.84373,-46.424745,-8.732446,0.068269,4.513767,0.154147,1.190007,0.007295,38.045851,-16.457121,-14.805501
1305397831226560,-9.488617,1.653326,-1.885493,0.270906,0.02445,-0.016482,47.949011,12.679012,12.86681,-9.579868,-0.791552,-1.850531,0.025919,0.019781,-0.026734,46.089679,-31.220952,12.742472,-9.620577,-0.273899,-1.730955,0.049703,-0.017834,-0.006289,34.861131,-3.344895,-48.822621,-9.546548,-1.068546,-1.376294,0.202515,0.206121,-0.014045,37.627357,-60.731667,-31.380218,-8.572035,-0.048479,-4.557987,0.240159,0.137126,-0.045995,18.88376,-50.372634,-80.566628,-9.665758,0.337665,-1.357802,-0.055059,0.206075,0.010209,26.991744,-19.347458,-45.547295,-8.690447,0.057334,4.511359,0.157986,1.184953,0.043125,33.163575,-19.932801,-19.806082
1305397831234370,-9.508828,1.642587,-1.887714,0.285947,0.028,-0.021031,48.425125,12.681801,13.385801,-9.562199,-0.782987,-1.846001,0.022695,0.010518,-0.023632,46.10546,-30.262789,12.20651,-9.583333,-0.284849,-1.712104,0.05133,-0.011509,-0.000261,36.484168,-2.272872,-48.813397,-9.520942,-1.109876,-1.383402,0.190188,0.2068,-0.055591,37.673853,-60.724398,-29.677243,-8.565058,-0.050672,-4.548653,0.227268,0.145047,-0.027817,18.828454,-49.555235,-81.972014,-9.661095,0.333014,-1.364826,-0.056845,0.198189,0.015906,27.295786,-24.538709,-48.606344,-8.638722,0.069652,4.497176,0.149136,1.183446,0.007245,35.742496,-17.106591,-22.051623
1305397831242180,-9.50418,1.633704,-1.881042,0.290656,0.028517,-0.01315,47.942376,12.684983,13.37696,-9.557946,-0.769797,-1.848289,0.021066,0.01214,-0.031602,45.613316,-30.249576,12.688981,-9.597216,-0.278094,-1.698018,0.051368,-0.008288,-0.000274,36.470449,-2.236699,-47.135346,-9.509101,-1.116614,-1.381021,0.192474,0.209246,-0.013852,39.218612,-60.710458,-31.329258,-8.569452,-0.034544,-4.562655,0.229013,0.141575,-0.015669,18.201815,-49.554379,-81.995855,-9.649517,0.316641,-1.348428,-0.067808,0.193709,0.080912,24.979814,-24.352502,-48.692985,-8.596872,0.049472,4.504182,0.149492,1.184691,-0.004697,35.502158,-26.109897,-25.172116
1305397831250000,-9.509015,1.644558,-1.885593,0.288108,0.0321,-0.02096,47.937939,12.685299,13.375602,-9.555589,-0.778668,-1.846006,0.021075,0.012125,-0.030005,45.609773,-30.739683,12.230497,-9.601437,-0.252549,-1.702694,0.044807,-0.005161,0.017942,35.709696,-1.258114,-48.784571,-9.489935,-1.116262,-1.373967,0.198646,0.22027,-0.037749,38.468261,-59.676316,-30.635141,-8.564645,-0.027521,-4.548662,0.222494,0.133383,-0.027634,19.403257,-51.279465,-83.406239,-9.63045,0.333619,-1.369549,-0.069842,0.194121,0.033351,22.845601,-23.530546,-43.946982,-8.58287,0.045053,4.492394,0.143235,1.195214,-0.010626,37.895723,-25.840902,-22.786838
1305397831257810,-9.504613,1.653315,-1.887816,0.274727,0.033526,-0.01643,48.427277,12.676147,12.874341,-9.550944,-0.791983,-1.848256,0.022696,0.019852,-0.033122,46.096121,-30.738195,12.716645,-9.617955,-0.26215,-1.688633,0.05806,-0.00489,-0.02458,36.491027,-2.290959,-49.652423,-9.494817,-1.120993,-1.36925,0.206984,0.212182,-0.043912,39.287136,-59.662077,-29.758173,-8.545941,-0.027188,-4.546319,0.220394,0.139103,-0.08222,19.455093,-49.556091,-81.948172,-9.642987,0.286173,-1.341419,-0.052192,0.201034,0.02796,25.192976,-29.861628,-54.168355,-8.587807,0.028803,4.501811,0.144584,1.198783,0.001348,40.33933,-22.44398,-17.741113
1305397831265620,-9.497782,1.651001,-1.894515,0.264805,0.034845,-0.016557,47.937939,12.685299,13.375602,-9.55307,-0.79858,-1.845977,0.017824,0.00602,-0.034858,46.099019,-30.745546,12.232336,-9.629223,-0.239053,-1.686273,0.048692,-0.004259,-0.054841,36.540423,-0.223267,-49.607838,-9.489812,-1.109293,-1.369251,0.202785,0.214703,0.009872,36.834169,-62.817228,-29.438942,-8.559807,-0.018175,-4.553327,0.224214,0.133231,-0.015528,19.424548,-47.030082,-82.606964,-9.57744,0.237634,-1.517043,-0.06945,0.209783,0.021889,27.007445,-22.419896,-50.701302,-8.62304,0.021345,4.49479,0.137008,1.212204,0.043234,37.850618,-25.650665,-20.356416
1305397831273430,-9.497935,1.662025,-1.901188,0.258234,0.029637,-0.018159,47.945577,12.189759,12.887242,-9.550944,-0.791983,-1.848256,0.019445,0.00908,-0.03323,46.10546,-30.262789,12.20651,-9.624345,-0.227325,-1.693301,0.056377,-0.011296,-0.024544,35.646581,-3.289633,-47.151104,-9.49712,-1.116395,-1.378675,0.205424,0.218861,-0.031909,38.422985,-60.721062,-31.354738,-8.571453,-0.016069,-4.551002,0.22111,0.146055,0.014631,18.774304,-49.58476,-83.394959,-9.477724,0.258175,-1.821511,-0.112276,0.208889,0.044735,24.584891,-19.479126,-48.050258,-8.679305,0.020522,4.530167,0.148716,1.203019,0.031258,35.502158,-26.109897,-25.172116
1305397831281250,-9.50241,1.659861,-1.919021,0.259786,0.029833,-0.01501,47.944573,12.679329,12.865501,-9.562134,-0.787398,-1.850535,0.022659,0.013692,-0.033184,46.096121,-30.738195,12.716645,-9.614667,-0.208522,-1.702662,0.065503,-0.013863,0.029979,35.653441,-3.30772,-47.99013,-9.497247,-1.123363,-1.378677,0.204197,0.212781,-0.008064,36.810921,-62.820862,-30.290429,-8.587795,-0.014034,-4.583664,0.218942,0.14207,-0.05801,20.054658,-49.57171,-82.635804,-9.511575,0.377847,-1.266568,-0.065101,0.19873,-0.002076,29.414298,-22.288228,-48.198339,-8.740289,0.014998,4.537301,0.149595,1.205344,0.001398,33.113532,-23.060728,-22.466528
1305397831289060,-9.502386,1.657663,-1.912336,0.246656,0.029262,-0.018292,47.937939,12.685299,13.375602,-9.587044,-0.807553,-1.848237,0.016455,0.014632,-0.032532,45.594928,-30.723396,12.71205,-9.622017,-0.217455,-1.721659,0.056279,-0.000908,-0.000333,34.878969,-2.292961,-47.961304,-9.516621,-1.13533,-1.390448,0.218928,0.21269,-0.026215,37.650605,-60.728032,-30.52873,-8.613609,-0.019112,-4.611664,0.218955,0.140411,-0.057989,20.055814,-50.418634,-82.653364,-9.641436,0.392446,-1.247806,-0.067197,0.230405,0.040301,29.414298,-22.288228,-48.198339,-8.707499,0.013166,4.513722,0.157346,1.209422,0.019366,37.985932,-26.221377,-27.647682
1305397831296870,-9.491152,1.664106,-1.921257,0.248267,0.03595,-0.01676,47.937939,12.685299,13.375602,-9.584721,-0.814219,-1.843687,0.019705,0.020736,-0.027679,45.594928,-30.723396,12.71205,-9.620239,-0.24772,-1.728744,0.06284,-0.004035,-0.018548,35.653441,-3.30772,-47.99013,-9.552608,-1.13831,-1.39513,0.211121,0.214833,0.00973,38.399737,-60.724697,-32.206225,-8.618294,-0.01919,-4.627993,0.230863,0.124827,-0.003356,20.081733,-49.556948,-81.924331,-9.623431,0.324395,-1.594355,-0.070837,0.211361,0.057548,31.836852,-25.228998,-50.849383,-8.700642,0.001711,4.51371,0.151876,1.193735,0.031212,40.714981,-14.011387,-21.911886
1305397831304680,-9.468537,1.663802,-1.90122,0.256535,0.034577,-0.016652,47.938943,12.195729,13.397343,-9.5715,-0.805595,-1.834617,0.019696,0.019196,-0.027695,46.093415,-30.253942,12.203857,-9.627476,-0.259506,-1.733471,0.067813,-0.000763,-0.030717,35.66716,-3.343894,-49.668181,-9.574004,-1.129414,-1.399822,0.209365,0.20648,-0.002228,37.694662,-58.645807,-30.792511,-8.625871,-0.051736,-4.602329,0.235399,0.123803,-0.045792,20.107651,-48.695261,-81.195297,-9.558645,0.391376,-1.367258,-0.058794,0.191465,0.033512,27.189205,-21.784146,-45.868659,-8.749762,0.007924,4.537311,0.157997,1.194411,-0.010596,42.682852,-25.302912,-18.01628
1305397831312500,-9.479822,1.661758,-1.903439,0.256373,0.026587,-0.011893,48.420643,12.682117,13.384441,-9.571794,-0.785723,-1.830105,0.019706,0.023847,-0.030843,46.084078,-30.729258,12.713888,-9.62342,-0.294371,-1.726457,0.053064,-0.000834,-0.000314,35.702837,-1.240027,-47.945545,-9.571107,-1.101496,-1.390387,0.219258,0.20815,-0.008352,37.650605,-60.728032,-30.52873,-8.616518,-0.051571,-4.59766,0.225499,0.145283,-0.045983,18.882604,-49.52571,-80.549068,-9.562174,0.313359,-1.346139,-0.05539,0.192972,0.075211,29.398597,-19.215791,-43.044332,-8.735644,0.012757,4.542003,0.161575,1.191101,-0.022557,37.945766,-22.712975,-20.126392
1305397831320310,-9.48649,1.653036,-1.898984,0.266301,0.03019,-0.011804,47.938943,12.195729,13.397343,-9.563024,-0.777026,-1.825576,0.024469,0.023868,-0.034039,46.093415,-30.253942,12.203857,-9.602261,-0.28931,-1.712314,0.054671,-0.005622,-0.006367,35.759092,0.809579,-48.739986,-9.525201,-1.079757,-1.378638,0.196122,0.198161,-0.002055,38.402176,-62.799654,-30.239469,-8.602436,-0.049015,-4.57433,0.228789,0.127228,-0.057901,20.1618,-48.665736,-79.772352,-9.567747,0.254285,-1.465536,-0.053482,0.20144,0.093297,29.414298,-22.288228,-48.198339,-8.707356,0.024731,4.537264,0.16375,1.197158,0.019309,40.334392,-25.762145,-22.831981
1305397831328120,-9.513417,1.6358,-1.88337,0.271206,0.0255,-0.010144,48.420643,12.682117,13.384441,-9.574021,-0.785673,-1.841456,0.011673,0.016199,-0.034113,45.597825,-30.730745,12.22784,-9.609465,-0.301073,-1.698239,0.054596,-0.007314,-0.000297,36.45261,-3.288632,-47.996664,-9.52215,-1.042542,-1.3527,0.199274,0.197996,-0.014043,38.48907,-57.597725,-31.750409,-8.583523,-0.037108,-4.567327,0.227506,0.133178,-0.009494,18.855529,-49.540472,-81.260541,-9.581845,0.261143,-1.428067,-0.058547,0.204792,0.004162,29.414298,-22.288228,-48.198339,-8.728513,0.022115,4.570244,0.159367,1.199556,0.001388,37.945766,-22.712975,-20.126392
1305397831335930,-9.524803,1.640381,-1.881122,0.269712,0.031796,-0.014909,48.420643,12.682117,13.384441,-9.582693,-0.800993,-1.848246,0.022821,0.013077,-0.032549,45.604265,-30.24808,12.202019,-9.635363,-0.310862,-1.698295,0.044855,-0.015144,-0.000208,36.508866,-1.239026,-48.791105,-9.531319,-1.019488,-1.345613,0.197497,0.199483,-0.019968,39.217392,-59.67298,-32.312636,-8.555548,-0.04124,-4.560313,0.229016,0.135021,-0.021646,18.855529,-49.540472,-81.260541,-9.646842,0.34517,-1.339108,-0.083664,0.210107,0.039424,24.584891,-19.479126,-48.050258,-8.681756,0.015872,4.563124,0.157192,1.193499,-0.040479,38.035975,-23.09345,-24.987236
1305397831343750,-9.542842,1.636223,-1.887795,0.271153,0.02393,-0.008566,47.937939,12.685299,13.375602,-9.582823,-0.792158,-1.848259,0.022884,0.020744,-0.029277,45.604265,-30.24808,12.202019,-9.658499,-0.297303,-1.698317,0.053025,-0.013557,-0.012389,35.691858,-2.310047,-49.645889,-9.545991,-1.036011,-1.350319,0.183758,0.202084,-0.04358,40.014239,-60.699854,-31.303778,-8.541682,-0.050253,-4.553305,0.220612,0.142002,-0.051963,18.855529,-49.540472,-81.260541,-9.656293,0.345052,-1.378915,-0.08983,0.217719,0.033554,34.046243,-22.660643,-48.025057,-8.607103,-0.006144,4.537134,0.169138,1.193767,0.001377,40.389373,-19.316053,-15.080667
1305397831351560,-9.53821,1.629529,-1.894496,0.269446,0.022307,-0.007007,48.420643,12.682117,13.384441,-9.584983,-0.796546,-1.845983,0.022848,0.011474,-0.026176,46.077638,-31.211922,12.73971,-9.653787,-0.294893,-1.703007,0.044799,-0.019977,-0.000189,35.691858,-2.310047,-49.645889,-9.548834,-1.061611,-1.371539,0.182037,0.198705,-0.049539,37.649386,-59.690554,-31.512108,-8.560588,-0.062165,-4.546314,0.225779,0.146438,-0.009646,18.800222,-48.723073,-82.665926,-9.663519,0.335515,-1.414034,-0.090172,0.207553,0.021397,31.639391,-22.79231,-50.52802,-8.602977,-0.043062,4.546535,0.164063,1.208024,0.013398,33.078304,-16.234161,-9.85437
1305397831359370,-9.517942,1.635863,-1.885594,0.271409,0.025215,-0.016404,48.421647,12.192547,13.406182,-9.585017,-0.794327,-1.852796,0.024396,0.003771,-0.026253,46.081181,-30.721909,13.198099,-9.660602,-0.285675,-1.684205,0.0511,-0.017148,0.017951,34.885829,-2.311048,-48.800329,-9.520276,-1.072702,-1.383354,0.182257,0.195678,-0.037631,39.197803,-62.789049,-30.213989,-8.565517,-0.076135,-4.557973,0.217538,0.144953,-0.02774,19.5104,-50.37349,-80.542787,-9.68231,0.344672,-1.390617,-0.077321,0.21056,0.033627,31.821151,-22.156561,-45.695377,-8.629171,-0.071183,4.558329,0.166721,1.199236,0.031279,38.326355,-10.962217,-19.206297
1305397831367180,-9.522607,1.646936,-1.905638,0.269813,0.031653,-0.018039,47.937939,12.685299,13.375602,-9.594048,-0.785354,-1.857351,0.021218,0.006874,-0.027819,46.081181,-30.721909,13.198099,-9.636852,-0.264289,-1.69589,0.048034,-0.013689,0.00583,35.759092,0.809579,-48.739986,-9.51077,-1.077174,-1.388079,0.182238,0.197301,-0.03762,37.628577,-61.769145,-30.39684,-8.588787,-0.055366,-4.562748,0.232765,0.154888,-0.021924,17.599937,-47.844912,-81.273103,-9.687078,0.342235,-1.383589,-0.059813,0.206951,0.063604,29.686938,-21.334604,-40.949374,-8.636042,-0.059725,4.57011,0.17988,1.214273,0.037373,35.557139,-19.663806,-17.420803
1305397831375000,-9.52257,1.644724,-1.9101,0.271263,0.030351,-0.011747,47.944573,12.679329,12.865501,-9.587506,-0.776602,-1.868713,0.016409,0.0116,-0.037355,46.080535,-31.219271,12.2555,-9.618203,-0.266295,-1.707612,0.040034,-0.000779,0.017953,36.515725,-1.257113,-49.63013,-9.534906,-1.086903,-1.388059,0.175803,0.208985,-0.013568,38.421765,-59.683584,-32.338116,-8.612042,-0.048836,-4.565096,0.231284,0.143171,-0.015707,18.800222,-48.723073,-82.665926,-9.718001,0.329972,-1.395282,-0.052138,0.198343,0.057596,29.80922,-27.161605,-48.841066,-8.612141,-0.034019,4.546603,0.178483,1.205833,0.02537,33.018384,-25.998417,-22.696551
1305397831382810,-9.513764,1.662235,-1.916775,0.268007,0.031813,-0.013363,47.944573,12.679329,12.865501,-9.602816,-0.794061,-1.855069,0.02436,0.000723,-0.029479,46.077638,-31.211922,12.73971,-9.620715,-0.275663,-1.709978,0.049921,-0.008569,-0.018453,36.491027,-2.290959,-49.652423,-9.559396,-1.115207,-1.371546,0.176885,0.211603,-0.049366,38.468261,-59.676316,-30.635141,-8.577025,-0.05052,-4.581401,0.239362,0.153122,-0.009835,18.173583,-48.722217,-82.689768,-9.697338,0.287767,-1.411658,-0.061779,0.199187,0.027711,29.793519,-24.089167,-43.687059,-8.583665,-0.010489,4.527744,0.188754,1.225095,0.019531,42.727957,-25.493149,-20.446702
1305397831390620,-9.513469,1.642371,-1.92126,0.269765,0.033365,-0.016487,47.938943,12.195729,13.397343,-9.595877,-0.811849,-1.841422,0.018039,0.008421,-0.027803,46.077638,-31.211922,12.73971,-9.627748,-0.275802,-1.719391,0.054484,-0.012228,0.005786,36.484168,-2.272872,-48.813397,-9.572057,-1.152589,-1.371545,0.18584,0.214116,-0.00774,37.651825,-61.765511,-29.545352,-8.556116,-0.057086,-4.593048,0.236005,0.161473,-0.015972,18.226576,-47.845768,-81.249261,-9.659558,0.283607,-1.418691,-0.063394,0.197379,0.033571,31.532809,-20.037747,-47.790335,-8.627213,0.053584,4.52546,0.195114,1.235226,0.031555,37.805514,-25.460427,-17.925993
1305397831398430,-9.502472,1.664271,-1.921244,0.271417,0.031778,-0.016455,48.420643,12.682117,13.384441,-9.595774,-0.818514,-1.814171,0.021254,0.009922,-0.024593,46.077638,-31.211922,12.73971,-9.634827,-0.278275,-1.731157,0.05968,-0.003879,-0.024593,35.674019,-3.361981,-50.507207,-9.555908,-1.187126,-1.381,0.185824,0.207519,-0.013749,38.447452,-61.754907,-29.519872,-8.561043,-0.071057,-4.600043,0.231104,0.159851,-0.021973,18.17474,-49.569141,-82.707328,-9.626678,0.267575,-1.449134,-0.058963,0.187376,0.021518,34.152824,-25.415205,-50.762742,-8.645039,0.11341,4.504312,0.187216,1.23289,0.019573,38.231208,-13.899906,-19.436321
1305397831406250,-9.489161,1.681743,-1.907861,0.27442,0.032313,-0.007027,47.938943,12.195729,13.397343,-9.591455,-0.809748,-1.811913,0.024424,0.014613,-0.032534,46.086975,-30.736606,12.229678,-9.641959,-0.285385,-1.724127,0.062727,-0.018451,-0.024554,35.684998,-2.29196,-48.806863,-9.547529,-1.25198,-1.359814,0.187397,0.215656,-0.013723,37.628577,-61.769145,-30.39684,-8.589228,-0.078498,-4.614049,0.237555,0.158337,-0.028063,19.455093,-49.556091,-81.948172,-9.581774,0.265871,-1.432753,-0.06036,0.203339,-0.037503,27.204906,-24.856584,-51.022666,-8.649025,0.159575,4.492559,0.18233,1.235784,0.019578,35.461992,-22.601495,-17.650827
1305397831414060,-9.491448,1.681802,-1.887794,0.259531,0.028549,-0.007173,47.937939,12.685299,13.375602,-9.59119,-0.827447,-1.791457,0.019696,0.019196,-0.027695,46.086975,-30.736606,12.229678,-9.634688,-0.271274,-1.724097,0.068935,-0.023677,-0.006381,36.522585,-1.2752,-50.469156,-9.559577,-1.25685,-1.381018,0.194195,0.212625,-0.007893,37.627357,-60.731667,-31.380218,-8.607493,-0.053353,-4.644389,0.23919,0.156693,-0.028055,18.228889,-49.539616,-81.284382,-9.562676,0.277964,-1.430423,-0.055033,0.211091,0.040048,29.307717,-19.533665,-45.460654,-8.660727,0.159399,4.483158,0.170978,1.246215,0.019612,40.284349,-28.890072,-25.492426
1305397831421870,-9.497827,1.653222,-1.883365,0.24485,0.029422,-0.013616,47.938943,12.195729,13.397343,-9.584547,-0.825344,-1.786918,0.019706,0.023847,-0.030843,46.084078,-30.729258,12.713888,-9.585282,-0.254075,-1.728693,0.060859,-0.01721,0.005767,36.45261,-3.288632,-47.996664,-9.544883,-1.240335,-1.399883,0.210721,0.209424,-0.02013,37.605329,-61.772779,-31.248327,-8.591131,-0.05306,-4.649044,0.23764,0.159829,-0.015964,18.827297,-48.708311,-81.954453,-9.543612,0.287694,-1.428092,-0.074308,0.20658,0.021703,27.264384,-18.393834,-38.29833,-8.707907,0.137903,4.499687,0.176857,1.245643,0.043523,40.569791,-20.077003,-24.802355
1305397831429680,-9.49133,1.672987,-1.878889,0.246559,0.032686,-0.015188,47.937939,12.685299,13.375602,-9.564623,-0.818998,-1.798275,0.024505,0.026916,-0.030813,46.084078,-30.729258,12.713888,-9.582331,-0.221389,-1.716897,0.066352,-0.011595,-0.06098,36.533564,-0.20518,-48.768812,-9.511461,-1.241985,-1.37866,0.209489,0.211762,0.009737,37.675072,-61.761877,-28.693865,-8.586457,-0.052976,-4.651374,0.237832,0.14149,-0.009678,18.855529,-49.540472,-81.260541,-9.55032,0.313586,-1.439813,-0.071045,0.20774,0.033684,22.663841,-24.166295,-48.779626,-8.755258,0.102528,4.487965,0.169002,1.233686,0.02551,37.760409,-25.270189,-15.495571
1305397831437500,-9.495886,1.679682,-1.910062,0.24486,0.040605,-0.016853,47.938866,12.685233,13.375886,-9.539989,-0.830374,-1.818686,0.021309,0.025383,-0.030828,45.594928,-30.723396,12.71205,-9.600547,-0.19377,-1.723944,0.064558,-0.013412,-0.042774,34.861131,-3.344895,-48.822621,-9.494472,-1.230065,-1.378672,0.22081,0.218107,-0.008313,38.46948,-60.713794,-29.651763,-8.581491,-0.036687,-4.649045,0.239073,0.147073,-0.05217,19.483325,-50.388253,-81.25426,-9.541003,0.313913,-1.430481,-0.069733,0.209461,0.033757,24.782353,-21.915814,-48.371621,-8.788331,0.083548,4.490353,0.160832,1.223635,0.019457,35.647348,-20.044281,-22.281647
1305397831445310,-9.48233,1.681685,-1.914533,0.23819,0.03718,-0.015338,47.938866,12.685233,13.375886,-9.53335,-0.828242,-1.834578,0.032438,0.023849,-0.034041,46.084078,-30.729258,12.713888,-9.616855,-0.189421,-1.735717,0.056371,-0.011859,-0.024542,34.892688,-2.329135,-49.639355,-9.482075,-1.208952,-1.414033,0.229457,0.215319,0.009419,36.856197,-61.776115,-29.570832,-8.565433,-0.052589,-4.681682,0.233379,0.126003,0.026904,20.081733,-49.556948,-81.924331,-9.548313,0.299627,-1.421104,-0.069705,0.213203,0.016032,32.125193,-27.347812,-48.754425,-8.807417,0.060152,4.492724,0.171336,1.221913,-0.004429,37.800575,-28.778592,-23.016861
1305397831453120,-9.480038,1.68162,-1.939059,0.24154,0.030653,-0.016813,47.938866,12.685233,13.375886,-9.537639,-0.8392,-1.848184,0.029323,0.026841,-0.024425,46.084078,-30.729258,12.713888,-9.581934,-0.195803,-1.756818,0.057941,-0.015118,-0.024538,36.522585,-1.2752,-50.469156,-9.467153,-1.178492,-1.404609,0.227881,0.215402,0.015412,37.605329,-61.772779,-31.248327,-8.553853,-0.059336,-4.653685,0.242932,0.136222,0.014584,19.45972,-52.943788,-82.018414,-9.560213,0.294721,-1.411731,-0.064984,0.207871,0.039755,29.429999,-25.360666,-53.352346,-8.793681,0.037237,4.47387,0.171932,1.219839,0.031411,35.602244,-19.854043,-19.851225
1305397831460930,-9.473153,1.674904,-1.936846,0.246498,0.027532,-0.016731,47.938866,12.685233,13.375886,-9.535611,-0.825974,-1.852743,0.024532,0.020646,-0.019694,45.594928,-30.723396,12.71205,-9.577586,-0.214357,-1.752133,0.06086,-0.007708,0.017856,34.885829,-2.311048,-48.800329,-9.475849,-1.129891,-1.404586,0.24347,0.229174,-0.044425,37.629796,-62.806623,-29.413462,-8.553878,-0.061662,-4.625697,0.24259,0.13681,-0.027833,19.455093,-49.556091,-81.948172,-9.572217,0.282729,-1.407038,-0.052357,0.20948,0.010355,29.414298,-22.288228,-48.198339,-8.793456,0.053423,4.485644,0.161702,1.203729,0.037268,40.710043,-17.329551,-27.002754
1305397831468750,-9.484415,1.670665,-1.93015,0.264651,0.036397,-0.015021,47.938866,12.685233,13.375886,-9.533653,-0.808295,-1.882279,0.024559,0.025265,-0.019647,46.086975,-30.736606,12.229678,-9.554489,-0.230244,-1.749764,0.044818,-0.013615,0.005849,36.515725,-1.257113,-49.63013,-9.479832,-1.085848,-1.409283,0.229422,0.210344,0.00342,36.83173,-60.742271,-31.405698,-8.554002,-0.068607,-4.625695,0.244046,0.127289,-0.05802,18.775461,-50.431684,-83.41252,-9.584182,0.273107,-1.416396,-0.060424,0.202427,0.027825,27.114026,-25.174458,-53.438987,-8.771739,0.097664,4.499753,0.168524,1.197438,0.025297,33.068427,-22.87049,-20.036106
1305397831476560,-9.486813,1.67953,-1.925678,0.261495,0.036076,-0.019754,48.421579,12.682051,13.384725,-9.542414,-0.817013,-1.868648,0.021397,0.026774,-0.016441,46.080625,-31.219339,12.255519,-9.578285,-0.256466,-1.740247,0.049534,-0.004207,0.030036,36.533564,-0.20518,-48.768812,-9.493776,-1.060551,-1.376262,0.22572,0.218076,-0.014364,37.650605,-60.728032,-30.52873,-8.55161,-0.066259,-4.602371,0.239249,0.136948,-0.039927,20.081733,-49.556948,-81.924331,-9.598617,0.256363,-1.42575,-0.058978,0.200146,0.009972,29.216837,-19.85154,-47.876976,-8.728985,0.137589,4.495004,0.164539,1.19146,-0.010597,37.895723,-25.840902,-22.786838
1305397831484370,-9.470754,1.663868,-1.914569,0.26981,0.031351,-0.021185,47.456153,12.688414,13.367046,-9.549252,-0.80587,-1.868665,0.018119,0.01605,-0.021341,45.595017,-30.723463,12.712071,-9.599724,-0.277829,-1.745009,0.046541,-0.003807,0.0058,36.502006,-1.220939,-47.952079,-9.515039,-1.044689,-1.385666,0.210719,0.209623,-0.020128,38.446232,-60.717428,-30.50325,-8.546928,-0.06618,-4.590707,0.239497,0.129973,-0.015606,19.455093,-49.556091,-81.948172,-9.612639,0.267958,-1.411702,-0.057239,0.204524,0.016064,29.702639,-24.407042,-46.103381,-8.667846,0.152357,4.473749,0.160208,1.189128,0.025229,40.244183,-25.381669,-17.971137
1305397831492180,-9.493,1.635542,-1.892288,0.268101,0.028087,-0.019614,47.938866,12.685233,13.375886,-9.560569,-0.792483,-1.848255,0.021325,0.014455,-0.016565,46.080625,-31.219339,12.255519,-9.595544,-0.308004,-1.714487,0.056225,-0.00556,-0.000314,34.885829,-2.311048,-48.800329,-9.524418,-1.033249,-1.38094,0.202657,0.209818,-0.002091,37.606548,-62.810258,-30.264949,-8.54442,-0.056881,-4.58138,0.239354,0.123671,-0.039761,19.455093,-49.556091,-81.948172,-9.631632,0.262952,-1.411694,-0.065161,0.199806,0.051422,29.323418,-22.606103,-50.614661,-8.616511,0.139248,4.471329,0.167636,1.190221,-0.004622,32.742819,-28.175156,-13.204887
1305397831500000,-9.50404,1.615859,-1.883383,0.269443,0.022005,-0.010153,47.93987,12.195653,13.397627,-9.569566,-0.785728,-1.845996,0.021325,0.019122,-0.021311,46.080625,-31.219339,12.255519,-9.611669,-0.296621,-1.693349,0.059683,0.001052,-0.01855,36.533564,-0.20518,-48.768812,-9.536747,-1.052048,-1.373863,0.20271,0.213171,0.003897,38.378928,-62.803288,-31.090957,-8.54905,-0.054652,-4.574387,0.232834,0.140036,-0.027797,18.828454,-49.555235,-81.972014,-9.640961,0.272249,-1.385937,-0.065522,0.189874,0.03333,31.927732,-24.911124,-48.433062,-8.586283,0.123513,4.459518,0.160322,1.206466,-0.028445,40.479582,-19.696528,-19.941511
1305397831507810,-9.513286,1.629228,-1.885585,0.272753,0.023753,-0.010128,47.932232,12.691203,13.885997,-9.580623,-0.789997,-1.834641,0.019758,0.020634,-0.0181,45.595017,-30.723463,12.712071,-9.641982,-0.294804,-1.662845,0.06746,-0.012184,-0.006418,36.445751,-3.270545,-47.157638,-9.5394,-1.066027,-1.371507,0.169352,0.206052,-0.001545,39.151307,-62.796318,-31.916964,-8.555989,-0.050142,-4.588386,0.234452,0.146606,-0.021833,18.829611,-50.402159,-81.989574,-9.652549,0.288602,-1.367209,-0.063888,0.191448,0.033405,31.927732,-24.911124,-48.433062,-8.586939,0.079589,4.464215,0.153165,1.213088,-0.004523,35.7876,-17.296829,-24.482046
1305397831515620,-9.517883,1.633713,-1.881115,0.269491,0.020293,-0.011705,47.93987,12.195653,13.397627,-9.583011,-0.778927,-1.830117,0.024504,0.025353,-0.029236,45.597914,-30.730812,12.22786,-9.660262,-0.271831,-1.658147,0.059551,-0.014975,-0.024549,35.684998,-2.29196,-48.806863,-9.561114,-1.073383,-1.352633,0.182472,0.201069,-0.019701,38.490289,-58.635203,-30.767031,-8.567476,-0.038772,-4.595394,0.237647,0.146721,-0.027918,18.829611,-50.402159,-81.989574,-9.65043,0.272095,-1.362517,-0.048347,0.1699,0.092575,36.484498,-28.67385,-55.830108,-8.601334,0.056261,4.461872,0.15647,1.227609,0.001544,40.474644,-23.014693,-25.032379
1305397831523430,-9.520315,1.644787,-1.87441,0.26955,0.026785,-0.013322,48.421579,12.682051,13.384725,-9.58517,-0.783311,-1.830111,0.024495,0.025369,-0.030833,46.090608,-30.246659,12.688087,-9.6552,-0.250768,-1.655762,0.056204,-0.021425,-0.01844,35.6603,-3.325807,-48.829156,-9.576089,-1.106163,-1.350272,0.187508,0.206122,-0.013787,39.173336,-61.755205,-32.048855,-8.560346,-0.031696,-4.609386,0.233069,0.134721,-0.003497,17.574019,-48.706598,-82.002136,-9.63559,0.312571,-1.542859,-0.06406,0.185371,0.033242,27.280085,-21.466272,-43.452337,-8.655564,0.032347,4.468993,0.1567,1.232172,-0.004404,42.773061,-25.683387,-22.877124
1305397831531250,-9.545141,1.640722,-1.885534,0.271109,0.031903,-0.010212,47.93987,12.195653,13.397627,-9.589521,-0.789882,-1.823292,0.021298,0.022281,-0.029266,45.595017,-30.723463,12.712071,-9.654956,-0.234492,-1.686294,0.057534,-0.017117,0.017913,37.283337,-2.253785,-48.819931,-9.581135,-1.120187,-1.352629,0.184573,0.211479,0.016129,38.377708,-61.765809,-32.074335,-8.553416,-0.0362,-4.611713,0.237676,0.136848,-0.033854,18.855529,-49.540472,-81.260541,-9.661484,0.323904,-1.369567,-0.078855,0.166178,0.04431,29.505178,-21.970354,-45.782018,-8.704907,0.022373,4.478466,0.155307,1.250998,-0.004297,35.411949,-25.729422,-20.311272
1305397831539060,-9.529565,1.66033,-1.901131,0.267801,0.031796,-0.01025,48.414945,12.688021,13.894836,-9.593839,-0.798657,-1.81874,0.022883,0.017626,-0.026119,46.573319,-30.735186,12.715747,-9.64529,-0.215698,-1.702706,0.056167,-0.019895,-0.012383,34.87485,-3.381069,-50.500673,-9.567387,-1.154766,-1.357366,0.186498,0.205234,0.027987,39.946935,-62.785714,-31.891484,-8.569955,-0.045747,-4.628045,0.242964,0.144351,0.0266,18.827297,-48.708311,-81.954453,-9.621536,0.307923,-1.299317,-0.069182,0.171064,0.044641,29.232538,-22.923977,-53.030983,-8.730719,0.017363,4.457311,0.164954,1.235754,-0.004363,35.507096,-22.791733,-20.081249
1305397831546870,-9.507176,1.677644,-1.907822,0.267896,0.026731,-0.013341,48.414945,12.688021,13.894836,-9.596163,-0.791988,-1.82556,0.024467,0.017638,-0.027716,46.570422,-30.727837,13.199958,-9.626411,-0.203738,-1.728512,0.051345,-0.010281,-0.000266,36.491027,-2.290959,-49.652423,-9.533815,-1.15416,-1.378611,0.182488,0.207666,-0.013691,36.832949,-61.779749,-30.42232,-8.577152,-0.05512,-4.660697,0.239539,0.142997,0.002408,18.175896,-50.416065,-82.724888,-9.624649,0.25366,-1.510045,-0.062364,0.18823,0.039293,29.596058,-21.652479,-43.365696,-8.779748,0.028195,4.462081,0.156729,1.238639,0.055385,32.923237,-28.936107,-22.926575
1305397831554680,-9.513955,1.677728,-1.918961,0.266346,0.028176,-0.016503,48.414945,12.688021,13.894836,-9.591387,-0.814141,-1.825527,0.022883,0.01607,-0.024537,46.570422,-30.727837,13.199958,-9.62383,-0.189721,-1.735541,0.041809,-0.014645,-0.018381,36.491027,-2.290959,-49.652423,-9.53159,-1.163406,-1.376259,0.194488,0.203308,0.003973,36.832949,-61.779749,-30.42232,-8.577121,-0.064643,-4.658246,0.243581,0.135478,-0.046001,18.175896,-50.416065,-82.724888,-9.582236,0.244791,-1.418723,-0.073726,0.184461,0.009251,29.596058,-21.652479,-43.365696,-8.892401,0.014978,4.492815,0.164911,1.245375,0.001668,32.923237,-28.936107,-22.926575
1305397831562500,-9.513915,1.675513,-1.925652,0.259519,0.021683,-0.010267,48.205169,12.407399,13.617314,-9.593354,-0.831746,-1.848204,0.021307,0.019154,-0.024505,45.671287,-30.750009,12.777791,-9.612248,-0.194191,-1.751978,0.031863,-0.02119,0.005956,36.15155,-3.062859,-48.340777,-9.53413,-1.172749,-1.404545,0.197526,0.212875,-0.007949,36.716754,-59.037216,-30.608254,-8.54002,-0.080172,-4.686206,0.227583,0.138221,-0.015616,18.147394,-48.860878,-82.839843,-9.597978,0.301204,-1.332104,-0.05606,0.189151,0.021626,32.114574,-22.204257,-50.333209,-8.908385,0.028404,4.495206,0.165928,1.23291,0.019523,40.693393,-22.708024,-17.860089
